File: instron/deadline/bak/size/bare_15_3/bare_15_3_60_120.txt
Thayer School of Engineering        Instron 4442 Mechanical Testing System
7/9/2018 2:41:34 AM

  Force (N)	Extension (mm)	Not Used	Not Used	Not Used	     Hour	    Minute	    Second
    0.1297 	    2.0500 	    2.0000 	   42.0000 	    1.2157
    0.5112 	    2.3580 	    2.0000 	   42.0000 	    1.3697
    0.4501 	    2.5860 	    2.0000 	   42.0000 	    1.4837
    0.4807 	    2.8800 	    2.0000 	   42.0000 	    1.6307
    0.4349 	    3.1980 	    2.0000 	   42.0000 	    1.7897
    0.3586 	    3.4480 	    2.0000 	   42.0000 	    1.9147
    0.4807 	    3.7660 	    2.0000 	   42.0000 	    2.0738
    0.5570 	    4.0620 	    2.0000 	   42.0000 	    2.2218
    0.4349 	    4.3340 	    2.0000 	   42.0000 	    2.3578
    0.4654 	    4.6180 	    2.0000 	   42.0000 	    2.4998
    0.3281 	    4.9000 	    2.0000 	   42.0000 	    2.6408
    0.4959 	    5.2280 	    2.0000 	   42.0000 	    2.8048
    0.6332 	    5.4640 	    2.0000 	   42.0000 	    2.9228
    0.6485 	    5.7940 	    2.0000 	   42.0000 	    3.0878
    0.4807 	    6.0920 	    2.0000 	   42.0000 	    3.2368
    0.4501 	    6.3940 	    2.0000 	   42.0000 	    3.3878
    0.5722 	    6.5840 	    2.0000 	   42.0000 	    3.4828
    0.5417 	    6.7720 	    2.0000 	   42.0000 	    3.5768
    0.4959 	    6.9700 	    2.0000 	   42.0000 	    3.6758
    0.6790 	    7.1600 	    2.0000 	   42.0000 	    3.7708
    0.4807 	    7.3600 	    2.0000 	   42.0000 	    3.8709
    0.4959 	    7.5500 	    2.0000 	   42.0000 	    3.9659
    0.5417 	    7.7420 	    2.0000 	   42.0000 	    4.0619
    0.4044 	    7.9400 	    2.0000 	   42.0000 	    4.1609
    0.4501 	    8.1460 	    2.0000 	   42.0000 	    4.2639
    0.6180 	    8.3460 	    2.0000 	   42.0000 	    4.3639
    0.6027 	    8.5420 	    2.0000 	   42.0000 	    4.4619
    0.4959 	    8.7260 	    2.0000 	   42.0000 	    4.5539
    0.6180 	    8.9380 	    2.0000 	   42.0000 	    4.6599
    0.4044 	    9.1240 	    2.0000 	   42.0000 	    4.7529
    0.5570 	    9.3100 	    2.0000 	   42.0000 	    4.8459
    0.6180 	    9.5040 	    2.0000 	   42.0000 	    4.9429
    0.6485 	    9.6940 	    2.0000 	   42.0000 	    5.0379
    0.4349 	    9.8880 	    2.0000 	   42.0000 	    5.1349
    0.6027 	   10.1400 	    2.0000 	   42.0000 	    5.2609
    0.5417 	   10.3340 	    2.0000 	   42.0000 	    5.3579
    0.2976 	   10.5140 	    2.0000 	   42.0000 	    5.4479
    0.5112 	   10.6940 	    2.0000 	   42.0000 	    5.5380
    0.5875 	   10.8780 	    2.0000 	   42.0000 	    5.6300
    0.6027 	   11.0700 	    2.0000 	   42.0000 	    5.7260
    0.4959 	   11.2600 	    2.0000 	   42.0000 	    5.8210
    0.6332 	   11.4420 	    2.0000 	   42.0000 	    5.9110
    0.7401 	   11.6300 	    2.0000 	   42.0000 	    6.0060
    0.5570 	   11.8740 	    2.0000 	   42.0000 	    6.1280
    0.5264 	   12.0680 	    2.0000 	   42.0000 	    6.2250
    0.6332 	   12.2600 	    2.0000 	   42.0000 	    6.3210
    0.6180 	   12.4420 	    2.0000 	   42.0000 	    6.4120
    0.6180 	   12.6240 	    2.0000 	   42.0000 	    6.5030
    0.6485 	   12.8100 	    2.0000 	   42.0000 	    6.5960
    0.7095 	   13.0000 	    2.0000 	   42.0000 	    6.6910
    0.6180 	   13.1860 	    2.0000 	   42.0000 	    6.7840
    0.5570 	   13.3760 	    2.0000 	   42.0000 	    6.8790
    0.4501 	   13.5660 	    2.0000 	   42.0000 	    6.9740
    0.5417 	   13.7560 	    2.0000 	   42.0000 	    7.0690
    0.6485 	   13.9460 	    2.0000 	   42.0000 	    7.1640
    0.6180 	   14.1420 	    2.0000 	   42.0000 	    7.2620
    0.6332 	   14.3340 	    2.0000 	   42.0000 	    7.3581
    0.6638 	   14.5180 	    2.0000 	   42.0000 	    7.4501
    0.6638 	   14.7100 	    2.0000 	   42.0000 	    7.5461
    0.7401 	   14.9040 	    2.0000 	   42.0000 	    7.6431
    0.7248 	   15.0840 	    2.0000 	   42.0000 	    7.7331
    0.6638 	   15.2760 	    2.0000 	   42.0000 	    7.8291
    0.5875 	   15.4620 	    2.0000 	   42.0000 	    7.9221
    0.8469 	   15.6540 	    2.0000 	   42.0000 	    8.0181
    0.6638 	   15.9020 	    2.0000 	   42.0000 	    8.1421
    0.6332 	   16.0960 	    2.0000 	   42.0000 	    8.2391
    0.7095 	   16.2860 	    2.0000 	   42.0000 	    8.3341
    0.8011 	   16.4820 	    2.0000 	   42.0000 	    8.4321
    0.4959 	   16.6760 	    2.0000 	   42.0000 	    8.5291
    0.7858 	   16.8760 	    2.0000 	   42.0000 	    8.6291
    0.3586 	   17.0740 	    2.0000 	   42.0000 	    8.7281
    0.5722 	   17.2680 	    2.0000 	   42.0000 	    8.8251
    0.5722 	   17.4560 	    2.0000 	   42.0000 	    8.9191
    0.6027 	   17.6480 	    2.0000 	   42.0000 	    9.0151
    0.7553 	   17.8300 	    2.0000 	   42.0000 	    9.1062
    0.8011 	   18.0340 	    2.0000 	   42.0000 	    9.2082
    0.7095 	   18.2300 	    2.0000 	   42.0000 	    9.3062
    0.6332 	   18.4260 	    2.0000 	   42.0000 	    9.4042
    0.6790 	   18.6080 	    2.0000 	   42.0000 	    9.4952
    0.6943 	   18.8140 	    2.0000 	   42.0000 	    9.5982
    0.5417 	   19.0100 	    2.0000 	   42.0000 	    9.6962
    0.7706 	   19.2080 	    2.0000 	   42.0000 	    9.7952
    0.7095 	   19.4020 	    2.0000 	   42.0000 	    9.8922
    0.7401 	   19.5900 	    2.0000 	   42.0000 	    9.9862
    0.6638 	   19.7860 	    2.0000 	   42.0000 	   10.0842
    0.6027 	   19.9760 	    2.0000 	   42.0000 	   10.1792
    0.7095 	   20.1620 	    2.0000 	   42.0000 	   10.2722
    0.6790 	   20.3500 	    2.0000 	   42.0000 	   10.3662
    0.6332 	   20.5420 	    2.0000 	   42.0000 	   10.4622
    0.5112 	   20.7380 	    2.0000 	   42.0000 	   10.5602
    0.7401 	   20.9340 	    2.0000 	   42.0000 	   10.6582
    0.6943 	   21.1200 	    2.0000 	   42.0000 	   10.7512
    0.6638 	   21.3140 	    2.0000 	   42.0000 	   10.8483
    0.6790 	   21.5120 	    2.0000 	   42.0000 	   10.9473
    0.4807 	   21.7080 	    2.0000 	   42.0000 	   11.0453
    0.6638 	   21.8960 	    2.0000 	   42.0000 	   11.1393
    0.8164 	   22.0840 	    2.0000 	   42.0000 	   11.2333
    0.6790 	   22.2800 	    2.0000 	   42.0000 	   11.3313
    0.6638 	   22.4660 	    2.0000 	   42.0000 	   11.4243
    0.8774 	   22.6640 	    2.0000 	   42.0000 	   11.5233
    0.5570 	   22.8500 	    2.0000 	   42.0000 	   11.6163
    0.7858 	   23.0440 	    2.0000 	   42.0000 	   11.7133
    0.7401 	   23.2420 	    2.0000 	   42.0000 	   11.8123
    0.7095 	   23.4340 	    2.0000 	   42.0000 	   11.9083
    0.8011 	   23.6280 	    2.0000 	   42.0000 	   12.0053
    0.8011 	   23.8160 	    2.0000 	   42.0000 	   12.0993
    0.7401 	   24.0080 	    2.0000 	   42.0000 	   12.1953
    0.8621 	   24.2000 	    2.0000 	   42.0000 	   12.2913
    0.6180 	   24.3880 	    2.0000 	   42.0000 	   12.3853
    0.7553 	   24.5780 	    2.0000 	   42.0000 	   12.4803
    0.6638 	   24.7760 	    2.0000 	   42.0000 	   12.5794
    0.6790 	   24.9700 	    2.0000 	   42.0000 	   12.6764
    0.8469 	   25.1580 	    2.0000 	   42.0000 	   12.7704
    0.9689 	   25.3440 	    2.0000 	   42.0000 	   12.8634
    0.7858 	   25.5380 	    2.0000 	   42.0000 	   12.9604
    0.8011 	   25.7380 	    2.0000 	   42.0000 	   13.0604
    0.7553 	   25.9400 	    2.0000 	   42.0000 	   13.1614
    0.8316 	   26.1440 	    2.0000 	   42.0000 	   13.2634
    0.7401 	   26.3420 	    2.0000 	   42.0000 	   13.3624
    0.6943 	   26.5340 	    2.0000 	   42.0000 	   13.4584
    0.8621 	   26.7340 	    2.0000 	   42.0000 	   13.5584
    0.7706 	   26.9280 	    2.0000 	   42.0000 	   13.6554
    0.9232 	   27.1100 	    2.0000 	   42.0000 	   13.7464
    0.8774 	   27.3060 	    2.0000 	   42.0000 	   13.8444
    0.8316 	   27.4940 	    2.0000 	   42.0000 	   13.9384
    0.8469 	   27.6900 	    2.0000 	   42.0000 	   14.0364
    0.9842 	   27.8840 	    2.0000 	   42.0000 	   14.1334
    0.8316 	   28.0760 	    2.0000 	   42.0000 	   14.2294
    0.8927 	   28.2780 	    2.0000 	   42.0000 	   14.3305
    0.9232 	   28.4740 	    2.0000 	   42.0000 	   14.4285
    0.7706 	   28.6820 	    2.0000 	   42.0000 	   14.5325
    0.8164 	   28.8720 	    2.0000 	   42.0000 	   14.6275
    0.9232 	   29.0600 	    2.0000 	   42.0000 	   14.7215
    0.7858 	   29.2580 	    2.0000 	   42.0000 	   14.8205
    0.8927 	   29.4520 	    2.0000 	   42.0000 	   14.9175
    0.9079 	   29.6520 	    2.0000 	   42.0000 	   15.0175
    0.9079 	   29.8540 	    2.0000 	   42.0000 	   15.1185
    0.8164 	   30.0520 	    2.0000 	   42.0000 	   15.2175
    1.0147 	   30.2580 	    2.0000 	   42.0000 	   15.3205
    0.8469 	   30.4520 	    2.0000 	   42.0000 	   15.4175
    0.9384 	   30.7200 	    2.0000 	   42.0000 	   15.5515
    0.9842 	   30.9080 	    2.0000 	   42.0000 	   15.6455
    0.6943 	   31.1080 	    2.0000 	   42.0000 	   15.7455
    0.6638 	   31.3120 	    2.0000 	   42.0000 	   15.8475
    0.9232 	   31.5120 	    2.0000 	   42.0000 	   15.9475
    0.9079 	   31.7200 	    2.0000 	   42.0000 	   16.0516
    1.0452 	   31.9180 	    2.0000 	   42.0000 	   16.1506
    0.8011 	   32.1160 	    2.0000 	   42.0000 	   16.2496
    0.8164 	   32.3220 	    2.0000 	   42.0000 	   16.3526
    0.8469 	   32.5160 	    2.0000 	   42.0000 	   16.4496
    0.8774 	   32.7180 	    2.0000 	   42.0000 	   16.5506
    0.9384 	   32.9100 	    2.0000 	   42.0000 	   16.6466
    0.9384 	   33.1120 	    2.0000 	   42.0000 	   16.7476
    1.0605 	   33.3220 	    2.0000 	   42.0000 	   16.8526
    0.9537 	   33.5220 	    2.0000 	   42.0000 	   16.9526
    0.8316 	   33.7140 	    2.0000 	   42.0000 	   17.0486
    0.8774 	   33.9120 	    2.0000 	   42.0000 	   17.1476
    0.9079 	   34.1140 	    2.0000 	   42.0000 	   17.2476
    0.7401 	   34.3160 	    2.0000 	   42.0000 	   17.3496
    0.9079 	   34.5140 	    2.0000 	   42.0000 	   17.4486
    0.9232 	   34.7080 	    2.0000 	   42.0000 	   17.5456
    0.8774 	   34.9140 	    2.0000 	   42.0000 	   17.6486
    0.6638 	   35.1060 	    2.0000 	   42.0000 	   17.7446
    0.8774 	   35.3080 	    2.0000 	   42.0000 	   17.8447
    0.9537 	   35.5040 	    2.0000 	   42.0000 	   17.9427
    1.0300 	   35.7040 	    2.0000 	   42.0000 	   18.0427
    0.8774 	   35.9000 	    2.0000 	   42.0000 	   18.1407
    0.8774 	   36.0960 	    2.0000 	   42.0000 	   18.2387
    0.9537 	   36.2980 	    2.0000 	   42.0000 	   18.3397
    1.1063 	   36.5000 	    2.0000 	   42.0000 	   18.4407
    0.9842 	   36.6980 	    2.0000 	   42.0000 	   18.5397
    1.0452 	   36.8940 	    2.0000 	   42.0000 	   18.6377
    0.6943 	   37.0940 	    2.0000 	   42.0000 	   18.7377
    1.0910 	   37.3000 	    2.0000 	   42.0000 	   18.8407
    0.9537 	   37.4980 	    2.0000 	   42.0000 	   18.9397
    1.1368 	   37.6940 	    2.0000 	   42.0000 	   19.0377
    1.0758 	   37.8920 	    2.0000 	   42.0000 	   19.1367
    0.9842 	   38.0940 	    2.0000 	   42.0000 	   19.2377
    1.0147 	   38.3000 	    2.0000 	   42.0000 	   19.3407
    1.1368 	   38.4960 	    2.0000 	   42.0000 	   19.4387
    0.9995 	   38.6900 	    2.0000 	   42.0000 	   19.5358
    0.9995 	   38.8880 	    2.0000 	   42.0000 	   19.6348
    0.8164 	   39.0860 	    2.0000 	   42.0000 	   19.7338
    1.1368 	   39.2840 	    2.0000 	   42.0000 	   19.8328
    1.0300 	   39.4840 	    2.0000 	   42.0000 	   19.9328
    0.9689 	   39.6820 	    2.0000 	   42.0000 	   20.0318
    1.0758 	   39.8840 	    2.0000 	   42.0000 	   20.1328
    1.1063 	   40.0800 	    2.0000 	   42.0000 	   20.2308
    1.0147 	   40.2860 	    2.0000 	   42.0000 	   20.3338
    0.9995 	   40.4840 	    2.0000 	   42.0000 	   20.4328
    1.1063 	   40.6840 	    2.0000 	   42.0000 	   20.5328
    0.9842 	   40.8860 	    2.0000 	   42.0000 	   20.6338
    1.1063 	   41.0900 	    2.0000 	   42.0000 	   20.7358
    1.0300 	   41.2960 	    2.0000 	   42.0000 	   20.8388
    1.1063 	   41.5000 	    2.0000 	   42.0000 	   20.9408
    0.9995 	   41.6980 	    2.0000 	   42.0000 	   21.0398
    0.7553 	   41.8980 	    2.0000 	   42.0000 	   21.1398
    0.7858 	   42.1040 	    2.0000 	   42.0000 	   21.2428
    1.1521 	   42.3080 	    2.0000 	   42.0000 	   21.3449
    1.0758 	   42.5080 	    2.0000 	   42.0000 	   21.4449
    1.1521 	   42.7060 	    2.0000 	   42.0000 	   21.5439
    1.1521 	   42.9100 	    2.0000 	   42.0000 	   21.6459
    1.2894 	   43.1020 	    2.0000 	   42.0000 	   21.7419
    1.0758 	   43.2940 	    2.0000 	   42.0000 	   21.8379
    1.0910 	   43.4880 	    2.0000 	   42.0000 	   21.9349
    1.0910 	   43.6920 	    2.0000 	   42.0000 	   22.0369
    1.1368 	   43.9000 	    2.0000 	   42.0000 	   22.1409
    1.1673 	   44.0960 	    2.0000 	   42.0000 	   22.2389
    1.0147 	   44.2960 	    2.0000 	   42.0000 	   22.3389
    1.1673 	   44.4900 	    2.0000 	   42.0000 	   22.4359
    1.1063 	   44.6880 	    2.0000 	   42.0000 	   22.5349
    1.1521 	   44.8860 	    2.0000 	   42.0000 	   22.6339
    1.0910 	   45.0880 	    2.0000 	   42.0000 	   22.7349
    1.0147 	   45.2920 	    2.0000 	   42.0000 	   22.8369
    1.2589 	   45.4920 	    2.0000 	   42.0000 	   22.9369
    1.2284 	   45.6920 	    2.0000 	   42.0000 	   23.0370
    1.0605 	   45.8900 	    2.0000 	   42.0000 	   23.1360
    1.0758 	   46.0880 	    2.0000 	   42.0000 	   23.2350
    1.2131 	   46.3000 	    2.0000 	   42.0000 	   23.3410
    0.9842 	   46.5000 	    2.0000 	   42.0000 	   23.4410
    1.1215 	   46.7000 	    2.0000 	   42.0000 	   23.5410
    1.3046 	   46.9080 	    2.0000 	   42.0000 	   23.6450
    1.0300 	   47.1040 	    2.0000 	   42.0000 	   23.7430
    1.3199 	   47.3200 	    2.0000 	   42.0000 	   23.8510
    1.2131 	   47.5220 	    2.0000 	   42.0000 	   23.9520
    1.2741 	   47.7240 	    2.0000 	   42.0000 	   24.0530
    1.2131 	   47.9240 	    2.0000 	   42.0000 	   24.1530
    1.2131 	   48.1260 	    2.0000 	   42.0000 	   24.2540
    1.4420 	   48.3300 	    2.0000 	   42.0000 	   24.3560
    1.1978 	   48.5360 	    2.0000 	   42.0000 	   24.4590
    1.1215 	   48.7420 	    2.0000 	   42.0000 	   24.5620
    1.2589 	   48.9400 	    2.0000 	   42.0000 	   24.6610
    1.2436 	   49.1440 	    2.0000 	   42.0000 	   24.7631
    1.3046 	   49.3460 	    2.0000 	   42.0000 	   24.8641
    1.5030 	   49.5480 	    2.0000 	   42.0000 	   24.9651
    1.2436 	   49.7520 	    2.0000 	   42.0000 	   25.0671
    0.9232 	   49.9500 	    2.0000 	   42.0000 	   25.1661
    0.9384 	   50.1540 	    2.0000 	   42.0000 	   25.2681
    1.2436 	   50.3560 	    2.0000 	   42.0000 	   25.3691
    1.3962 	   50.5560 	    2.0000 	   42.0000 	   25.4691
    1.2589 	   50.7540 	    2.0000 	   42.0000 	   25.5681
    1.4267 	   50.9520 	    2.0000 	   42.0000 	   25.6671
    1.1521 	   51.1640 	    2.0000 	   42.0000 	   25.7731
    1.3199 	   51.3720 	    2.0000 	   42.0000 	   25.8771
    1.2894 	   51.5740 	    2.0000 	   42.0000 	   25.9781
    1.2284 	   51.7780 	    2.0000 	   42.0000 	   26.0801
    1.3046 	   51.9800 	    2.0000 	   42.0000 	   26.1811
    1.1826 	   52.2040 	    2.0000 	   42.0000 	   26.2931
    1.2589 	   52.4100 	    2.0000 	   42.0000 	   26.3961
    1.3809 	   52.6140 	    2.0000 	   42.0000 	   26.4981
    1.3199 	   52.8160 	    2.0000 	   42.0000 	   26.5992
    1.4267 	   53.0220 	    2.0000 	   42.0000 	   26.7022
    1.2589 	   53.2360 	    2.0000 	   42.0000 	   26.8092
    1.3352 	   53.4420 	    2.0000 	   42.0000 	   26.9122
    1.2741 	   53.6500 	    2.0000 	   42.0000 	   27.0162
    1.3504 	   53.8520 	    2.0000 	   42.0000 	   27.1172
    1.1978 	   54.0580 	    2.0000 	   42.0000 	   27.2202
    1.3199 	   54.2740 	    2.0000 	   42.0000 	   27.3282
    1.0910 	   54.4820 	    2.0000 	   42.0000 	   27.4322
    1.2894 	   54.6840 	    2.0000 	   42.0000 	   27.5332
    1.3657 	   54.8920 	    2.0000 	   42.0000 	   27.6372
    1.3962 	   55.0900 	    2.0000 	   42.0000 	   27.7362
    1.3809 	   55.3080 	    2.0000 	   42.0000 	   27.8452
    1.2589 	   55.5160 	    2.0000 	   42.0000 	   27.9492
    1.4572 	   55.7220 	    2.0000 	   42.0000 	   28.0522
    1.3657 	   55.9260 	    2.0000 	   42.0000 	   28.1542
    1.4878 	   56.1300 	    2.0000 	   42.0000 	   28.2562
    1.3199 	   56.3460 	    2.0000 	   42.0000 	   28.3643
    1.3046 	   56.5560 	    2.0000 	   42.0000 	   28.4693
    1.4725 	   56.7700 	    2.0000 	   42.0000 	   28.5763
    1.4115 	   56.9740 	    2.0000 	   42.0000 	   28.6783
    1.4267 	   57.1880 	    2.0000 	   42.0000 	   28.7853
    1.4878 	   57.3980 	    2.0000 	   42.0000 	   28.8903
    1.3199 	   57.6000 	    2.0000 	   42.0000 	   28.9913
    1.4267 	   57.8020 	    2.0000 	   42.0000 	   29.0923
    1.2589 	   58.0140 	    2.0000 	   42.0000 	   29.1983
    1.1978 	   58.2340 	    2.0000 	   42.0000 	   29.3083
    1.3199 	   58.4420 	    2.0000 	   42.0000 	   29.4123
    1.4725 	   58.6500 	    2.0000 	   42.0000 	   29.5163
    1.4725 	   58.8540 	    2.0000 	   42.0000 	   29.6183
    1.4878 	   59.0580 	    2.0000 	   42.0000 	   29.7203
    1.5946 	   59.2800 	    2.0000 	   42.0000 	   29.8313
    1.4420 	   59.4880 	    2.0000 	   42.0000 	   29.9353
    1.6861 	   59.6980 	    2.0000 	   42.0000 	   30.0404
    1.5335 	   59.9080 	    2.0000 	   42.0000 	   30.1454
    1.3657 	   60.1140 	    2.0000 	   42.0000 	   30.2484
    1.5488 	   60.3060 	    2.0000 	   42.0000 	   30.3444
    1.4267 	   60.4960 	    2.0000 	   42.0000 	   30.4394
    1.3962 	   60.7020 	    2.0000 	   42.0000 	   30.5424
    1.3962 	   60.9340 	    2.0000 	   42.0000 	   30.6584
    1.3199 	   61.1300 	    2.0000 	   42.0000 	   30.7564
    1.4572 	   61.3340 	    2.0000 	   42.0000 	   30.8584
    1.3657 	   61.5380 	    2.0000 	   42.0000 	   30.9604
    1.4115 	   61.7280 	    2.0000 	   42.0000 	   31.0554
    1.0758 	   61.9080 	    2.0000 	   42.0000 	   31.1454
    1.3504 	   62.0900 	    2.0000 	   42.0000 	   31.2364
    1.4115 	   62.2740 	    2.0000 	   42.0000 	   31.3284
    1.3352 	   62.4560 	    2.0000 	   42.0000 	   31.4194
    1.4115 	   62.6380 	    2.0000 	   42.0000 	   31.5104
    1.3504 	   62.8180 	    2.0000 	   42.0000 	   31.6004
    1.1521 	   63.0120 	    2.0000 	   42.0000 	   31.6974
    1.3504 	   63.2140 	    2.0000 	   42.0000 	   31.7985
    1.2589 	   63.4200 	    2.0000 	   42.0000 	   31.9015
    1.1521 	   63.6240 	    2.0000 	   42.0000 	   32.0035
    1.2436 	   63.8380 	    2.0000 	   42.0000 	   32.1105
    1.0452 	   64.0500 	    2.0000 	   42.0000 	   32.2165
    1.3199 	   64.2560 	    2.0000 	   42.0000 	   32.3195
    1.1521 	   64.4660 	    2.0000 	   42.0000 	   32.4245
    1.1368 	   64.6760 	    2.0000 	   42.0000 	   32.5295
    1.3657 	   64.8900 	    2.0000 	   42.0000 	   32.6365
    1.1368 	   65.1000 	    2.0000 	   42.0000 	   32.7415
    1.2741 	   65.3260 	    2.0000 	   42.0000 	   32.8545
    1.1368 	   65.5420 	    2.0000 	   42.0000 	   32.9625
    1.1215 	   65.7540 	    2.0000 	   42.0000 	   33.0685
    1.2436 	   65.9660 	    2.0000 	   42.0000 	   33.1745
    1.3352 	   66.1860 	    2.0000 	   42.0000 	   33.2845
    1.1978 	   66.4020 	    2.0000 	   42.0000 	   33.3925
    0.9842 	   66.6120 	    2.0000 	   42.0000 	   33.4976
    1.1215 	   66.8200 	    2.0000 	   42.0000 	   33.6016
    1.0605 	   67.0320 	    2.0000 	   42.0000 	   33.7076
    1.3352 	   67.2460 	    2.0000 	   42.0000 	   33.8146
    1.1826 	   67.4580 	    2.0000 	   42.0000 	   33.9206
    1.0452 	   67.6620 	    2.0000 	   42.0000 	   34.0226
    1.0452 	   67.9060 	    2.0000 	   42.0000 	   34.1446
    1.3504 	   68.0940 	    2.0000 	   42.0000 	   34.2386
    1.1368 	   68.2920 	    2.0000 	   42.0000 	   34.3376
    0.9689 	   68.4840 	    2.0000 	   42.0000 	   34.4336
    1.1215 	   68.6860 	    2.0000 	   42.0000 	   34.5346
    1.0910 	   68.9340 	    2.0000 	   42.0000 	   34.6586
    1.0910 	   69.1300 	    2.0000 	   42.0000 	   34.7566
    1.0452 	   69.3380 	    2.0000 	   42.0000 	   34.8606
    1.0147 	   69.5420 	    2.0000 	   42.0000 	   34.9626
    1.0147 	   69.7320 	    2.0000 	   42.0000 	   35.0576
    1.0147 	   69.9320 	    2.0000 	   42.0000 	   35.1576
    1.0452 	   70.1260 	    2.0000 	   42.0000 	   35.2537
    1.2131 	   70.3220 	    2.0000 	   42.0000 	   35.3517
    0.9842 	   70.5120 	    2.0000 	   42.0000 	   35.4467
    0.8927 	   70.7180 	    2.0000 	   42.0000 	   35.5497
    0.9689 	   70.9280 	    2.0000 	   42.0000 	   35.6547
    1.0300 	   71.1420 	    2.0000 	   42.0000 	   35.7617
    0.9079 	   71.3580 	    2.0000 	   42.0000 	   35.8697
    1.0147 	   71.5760 	    2.0000 	   42.0000 	   35.9787
    1.0452 	   71.7920 	    2.0000 	   42.0000 	   36.0867
    0.9537 	   72.0060 	    2.0000 	   42.0000 	   36.1937
    1.0452 	   72.2200 	    2.0000 	   42.0000 	   36.3007
    1.0758 	   72.4220 	    2.0000 	   42.0000 	   36.4017
    1.0300 	   72.6140 	    2.0000 	   42.0000 	   36.4977
    0.6485 	   72.8040 	    2.0000 	   42.0000 	   36.5927
    0.9842 	   73.0100 	    2.0000 	   42.0000 	   36.6957
    0.7401 	   73.2240 	    2.0000 	   42.0000 	   36.8027
    0.9537 	   73.4340 	    2.0000 	   42.0000 	   36.9077
    0.8927 	   73.6480 	    2.0000 	   42.0000 	   37.0148
    0.9384 	   73.8720 	    2.0000 	   42.0000 	   37.1268
    0.9232 	   74.0920 	    2.0000 	   42.0000 	   37.2368
    1.0605 	   74.3120 	    2.0000 	   42.0000 	   37.3468
    1.1673 	   74.5180 	    2.0000 	   42.0000 	   37.4498
    0.8164 	   74.7160 	    2.0000 	   42.0000 	   37.5488
    0.8927 	   74.9080 	    2.0000 	   42.0000 	   37.6448
    0.9995 	   75.1300 	    2.0000 	   42.0000 	   37.7558
    0.8927 	   75.3500 	    2.0000 	   42.0000 	   37.8658
    1.0452 	   75.5720 	    2.0000 	   42.0000 	   37.9768
    0.9995 	   75.7840 	    2.0000 	   42.0000 	   38.0828
    0.8316 	   76.0040 	    2.0000 	   42.0000 	   38.1928
    1.0605 	   76.2240 	    2.0000 	   42.0000 	   38.3028
    0.9689 	   76.4320 	    2.0000 	   42.0000 	   38.4068
    0.9689 	   76.6380 	    2.0000 	   42.0000 	   38.5098
    0.5417 	   76.8300 	    2.0000 	   42.0000 	   38.6058
    0.9537 	   77.0420 	    2.0000 	   42.0000 	   38.7118
    0.8164 	   77.2600 	    2.0000 	   42.0000 	   38.8209
    0.9079 	   77.4740 	    2.0000 	   42.0000 	   38.9279
    0.8621 	   77.6920 	    2.0000 	   42.0000 	   39.0369
    0.9232 	   77.9120 	    2.0000 	   42.0000 	   39.1469
    0.8011 	   78.1160 	    2.0000 	   42.0000 	   39.2489
    0.9079 	   78.3520 	    2.0000 	   42.0000 	   39.3669
    0.8469 	   78.5640 	    2.0000 	   42.0000 	   39.4729
    0.9689 	   78.7540 	    2.0000 	   42.0000 	   39.5679
    0.8774 	   78.9540 	    2.0000 	   42.0000 	   39.6679
    0.8011 	   79.1740 	    2.0000 	   42.0000 	   39.7779
    0.5722 	   79.3960 	    2.0000 	   42.0000 	   39.8889
    0.8621 	   79.6100 	    2.0000 	   42.0000 	   39.9959
    0.8011 	   79.8260 	    2.0000 	   42.0000 	   40.1039
    0.8316 	   80.0400 	    2.0000 	   42.0000 	   40.2109
    0.7248 	   80.2680 	    2.0000 	   42.0000 	   40.3249
    0.7553 	   80.4820 	    2.0000 	   42.0000 	   40.4319
    0.8774 	   80.6740 	    2.0000 	   42.0000 	   40.5280
    0.7858 	   80.8600 	    2.0000 	   42.0000 	   40.6210
    0.7858 	   81.0820 	    2.0000 	   42.0000 	   40.7320
    0.8774 	   81.3020 	    2.0000 	   42.0000 	   40.8420
    0.7706 	   81.5200 	    2.0000 	   42.0000 	   40.9510
    0.7858 	   81.7380 	    2.0000 	   42.0000 	   41.0600
    0.6790 	   81.9580 	    2.0000 	   42.0000 	   41.1700
    0.7706 	   82.1840 	    2.0000 	   42.0000 	   41.2830
    0.7858 	   82.3960 	    2.0000 	   42.0000 	   41.3890
    0.8164 	   82.6060 	    2.0000 	   42.0000 	   41.4940
    0.8621 	   82.8020 	    2.0000 	   42.0000 	   41.5920
    0.7553 	   83.0080 	    2.0000 	   42.0000 	   41.6950
    0.7553 	   83.2260 	    2.0000 	   42.0000 	   41.8040
    0.7401 	   83.4480 	    2.0000 	   42.0000 	   41.9150
    0.7858 	   83.6680 	    2.0000 	   42.0000 	   42.0250
    0.6332 	   83.8900 	    2.0000 	   42.0000 	   42.1360
    0.7706 	   84.1120 	    2.0000 	   42.0000 	   42.2471
    0.6790 	   84.3260 	    2.0000 	   42.0000 	   42.3541
    0.9384 	   84.5420 	    2.0000 	   42.0000 	   42.4621
    0.6943 	   84.7480 	    2.0000 	   42.0000 	   42.5651
    0.7706 	   84.9400 	    2.0000 	   42.0000 	   42.6611
    0.8927 	   85.1480 	    2.0000 	   42.0000 	   42.7651
    0.9079 	   85.3640 	    2.0000 	   42.0000 	   42.8731
    0.7553 	   85.5780 	    2.0000 	   42.0000 	   42.9801
    0.7553 	   85.7940 	    2.0000 	   42.0000 	   43.0881
    0.7401 	   86.0160 	    2.0000 	   42.0000 	   43.1991
    0.6332 	   86.2480 	    2.0000 	   42.0000 	   43.3151
    0.7553 	   86.4580 	    2.0000 	   42.0000 	   43.4201
    0.5722 	   86.6760 	    2.0000 	   42.0000 	   43.5291
    0.8621 	   86.8840 	    2.0000 	   42.0000 	   43.6331
    0.6638 	   87.1100 	    2.0000 	   42.0000 	   43.7461
    0.3738 	   87.3320 	    2.0000 	   42.0000 	   43.8571
    0.6638 	   87.5540 	    2.0000 	   42.0000 	   43.9681
    0.5570 	   87.7800 	    2.0000 	   42.0000 	   44.0812
    0.5875 	   88.0040 	    2.0000 	   42.0000 	   44.1932
    0.6332 	   88.2380 	    2.0000 	   42.0000 	   44.3102
    0.6790 	   88.4520 	    2.0000 	   42.0000 	   44.4172
    0.6790 	   88.6540 	    2.0000 	   42.0000 	   44.5182
    0.8011 	   88.8540 	    2.0000 	   42.0000 	   44.6182
    0.6790 	   89.0660 	    2.0000 	   42.0000 	   44.7242
    0.7553 	   89.2620 	    2.0000 	   42.0000 	   44.8222
    0.6332 	   89.4580 	    2.0000 	   42.0000 	   44.9202
    0.7095 	   89.6540 	    2.0000 	   42.0000 	   45.0182
    0.6027 	   89.8460 	    2.0000 	   42.0000 	   45.1142
    0.6943 	   90.0420 	    2.0000 	   42.0000 	   45.2122
    0.7553 	   90.2420 	    2.0000 	   42.0000 	   45.3122
    0.7248 	   90.4500 	    2.0000 	   42.0000 	   45.4162
    0.5722 	   90.6660 	    2.0000 	   42.0000 	   45.5242
    0.5875 	   90.8540 	    2.0000 	   42.0000 	   45.6182
    0.6638 	   91.0480 	    2.0000 	   42.0000 	   45.7152
    0.6943 	   91.2680 	    2.0000 	   42.0000 	   45.8253
    0.3738 	   91.4920 	    2.0000 	   42.0000 	   45.9373
    0.6485 	   91.7000 	    2.0000 	   42.0000 	   46.0413
    0.6180 	   91.9260 	    2.0000 	   42.0000 	   46.1543
    0.7248 	   92.1600 	    2.0000 	   42.0000 	   46.2713
    0.5722 	   92.3700 	    2.0000 	   42.0000 	   46.3763
    0.6638 	   92.5860 	    2.0000 	   42.0000 	   46.4843
    0.6638 	   92.7900 	    2.0000 	   42.0000 	   46.5863
    0.6180 	   93.0000 	    2.0000 	   42.0000 	   46.6913
    0.6180 	   93.2000 	    2.0000 	   42.0000 	   46.7913
    0.3128 	   93.4000 	    2.0000 	   42.0000 	   46.8913
    0.6332 	   93.6220 	    2.0000 	   42.0000 	   47.0023
    0.6790 	   93.8460 	    2.0000 	   42.0000 	   47.1143
    0.6485 	   94.0780 	    2.0000 	   42.0000 	   47.2303
    0.5875 	   94.3160 	    2.0000 	   42.0000 	   47.3493
    0.6485 	   94.5260 	    2.0000 	   42.0000 	   47.4543
    0.5112 	   94.7440 	    2.0000 	   42.0000 	   47.5634
    0.6027 	   94.9480 	    2.0000 	   42.0000 	   47.6654
    0.6485 	   95.1800 	    2.0000 	   42.0000 	   47.7814
    0.7401 	   95.4140 	    2.0000 	   42.0000 	   47.8984
    0.6332 	   95.6480 	    2.0000 	   42.0000 	   48.0154
    0.6485 	   95.8780 	    2.0000 	   42.0000 	   48.1304
    0.6943 	   96.1020 	    2.0000 	   42.0000 	   48.2424
    0.6332 	   96.3260 	    2.0000 	   42.0000 	   48.3544
    0.7401 	   96.5420 	    2.0000 	   42.0000 	   48.4624
    0.6485 	   96.7560 	    2.0000 	   42.0000 	   48.5694
    0.6638 	   96.9680 	    2.0000 	   42.0000 	   48.6754
    0.7095 	   97.1920 	    2.0000 	   42.0000 	   48.7874
    0.5570 	   97.4180 	    2.0000 	   42.0000 	   48.9004
    0.4959 	   97.6400 	    2.0000 	   42.0000 	   49.0114
    0.5417 	   97.8680 	    2.0000 	   42.0000 	   49.1254
    0.6027 	   98.1020 	    2.0000 	   42.0000 	   49.2425
    0.4501 	   98.3320 	    2.0000 	   42.0000 	   49.3575
    0.5722 	   98.5520 	    2.0000 	   42.0000 	   49.4675
    0.4044 	   98.7740 	    2.0000 	   42.0000 	   49.5785
    0.6638 	   98.9780 	    2.0000 	   42.0000 	   49.6805
    0.4501 	   99.2040 	    2.0000 	   42.0000 	   49.7935
    0.5264 	   99.4280 	    2.0000 	   42.0000 	   49.9055
    0.5570 	   99.6500 	    2.0000 	   42.0000 	   50.0165
    0.5875 	   99.8720 	    2.0000 	   42.0000 	   50.1275
    0.4196 	  100.0980 	    2.0000 	   42.0000 	   50.2405
    0.5570 	  100.3300 	    2.0000 	   42.0000 	   50.3565
    0.5722 	  100.5600 	    2.0000 	   42.0000 	   50.4715
    0.5875 	  100.7740 	    2.0000 	   42.0000 	   50.5785
    0.4044 	  100.9980 	    2.0000 	   42.0000 	   50.6905
    0.4044 	  101.2300 	    2.0000 	   42.0000 	   50.8065
    0.5417 	  101.4540 	    2.0000 	   42.0000 	   50.9185
    0.2823 	  101.6820 	    2.0000 	   42.0000 	   51.0326
    0.5112 	  101.9100 	    2.0000 	   42.0000 	   51.1466
    0.6332 	  102.1420 	    2.0000 	   42.0000 	   51.2626
    0.5264 	  102.3720 	    2.0000 	   42.0000 	   51.3776
    0.4501 	  102.5940 	    2.0000 	   42.0000 	   51.4886
    0.2976 	  102.8220 	    2.0000 	   42.0000 	   51.6026
    0.4807 	  103.0380 	    2.0000 	   42.0000 	   51.7106
    0.4044 	  103.2760 	    2.0000 	   42.0000 	   51.8296
    0.4196 	  103.5080 	    2.0000 	   42.0000 	   51.9456
    0.5875 	  103.7440 	    2.0000 	   42.0000 	   52.0636
    0.2365 	  103.9740 	    2.0000 	   42.0000 	   52.1786
    0.5112 	  104.2000 	    2.0000 	   42.0000 	   52.2916
    0.5875 	  104.4160 	    2.0000 	   42.0000 	   52.3996
    0.4654 	  104.6300 	    2.0000 	   42.0000 	   52.5066
    0.3281 	  104.8500 	    2.0000 	   42.0000 	   52.6166
    0.4349 	  105.0840 	    2.0000 	   42.0000 	   52.7327
    0.4349 	  105.3220 	    2.0000 	   42.0000 	   52.8517
    0.5570 	  105.5500 	    2.0000 	   42.0000 	   52.9657
    0.5722 	  105.7860 	    2.0000 	   42.0000 	   53.0837
    0.4196 	  106.0220 	    2.0000 	   42.0000 	   53.2017
    0.4044 	  106.2460 	    2.0000 	   42.0000 	   53.3137
    0.4349 	  106.4720 	    2.0000 	   42.0000 	   53.4267
    0.4959 	  106.6920 	    2.0000 	   42.0000 	   53.5367
    0.5264 	  106.8940 	    2.0000 	   42.0000 	   53.6377
    0.3128 	  107.1160 	    2.0000 	   42.0000 	   53.7487
    0.4196 	  107.3400 	    2.0000 	   42.0000 	   53.8607
    0.5112 	  107.5640 	    2.0000 	   42.0000 	   53.9727
    0.4044 	  107.7840 	    2.0000 	   42.0000 	   54.0827
    0.5417 	  108.0080 	    2.0000 	   42.0000 	   54.1947
    0.4807 	  108.2380 	    2.0000 	   42.0000 	   54.3097
    0.5112 	  108.4640 	    2.0000 	   42.0000 	   54.4227
    0.4196 	  108.6940 	    2.0000 	   42.0000 	   54.5378
    0.3128 	  108.9360 	    2.0000 	   42.0000 	   54.6588
    0.3586 	  109.1600 	    2.0000 	   42.0000 	   54.7708
    0.4044 	  109.3840 	    2.0000 	   42.0000 	   54.8828
    0.5264 	  109.6160 	    2.0000 	   42.0000 	   54.9988
    0.3738 	  109.8500 	    2.0000 	   42.0000 	   55.1158
    0.4196 	  110.0860 	    2.0000 	   42.0000 	   55.2338
    0.4044 	  110.3240 	    2.0000 	   42.0000 	   55.3528
    0.4196 	  110.5460 	    2.0000 	   42.0000 	   55.4638
    0.4196 	  110.7740 	    2.0000 	   42.0000 	   55.5778
    0.3433 	  110.9820 	    2.0000 	   42.0000 	   55.6818
    0.4349 	  111.2260 	    2.0000 	   42.0000 	   55.8038
    0.4501 	  111.4580 	    2.0000 	   42.0000 	   55.9198
    0.3891 	  111.6960 	    2.0000 	   42.0000 	   56.0388
    0.3128 	  111.9300 	    2.0000 	   42.0000 	   56.1558
    0.5570 	  112.1640 	    2.0000 	   42.0000 	   56.2729
    0.1450 	  112.3920 	    2.0000 	   42.0000 	   56.3869
    0.3738 	  112.6160 	    2.0000 	   42.0000 	   56.4989
    0.3433 	  112.8440 	    2.0000 	   42.0000 	   56.6129
    0.5417 	  113.1000 	    2.0000 	   42.0000 	   56.7409
    0.3433 	  113.3280 	    2.0000 	   42.0000 	   56.8549
    0.1755 	  113.5640 	    2.0000 	   42.0000 	   56.9729
    0.4654 	  113.7980 	    2.0000 	   42.0000 	   57.0899
    0.3281 	  114.0260 	    2.0000 	   42.0000 	   57.2039
    0.3738 	  114.2620 	    2.0000 	   42.0000 	   57.3219
    0.3586 	  114.4880 	    2.0000 	   42.0000 	   57.4349
    0.3738 	  114.7120 	    2.0000 	   42.0000 	   57.5469
    0.1144 	  114.9300 	    2.0000 	   42.0000 	   57.6559
    0.3433 	  115.1840 	    2.0000 	   42.0000 	   57.7829
    0.3738 	  115.4220 	    2.0000 	   42.0000 	   57.9019
    0.4196 	  115.6560 	    2.0000 	   42.0000 	   58.0190
    0.5264 	  115.8940 	    2.0000 	   42.0000 	   58.1380
    0.2976 	  116.1300 	    2.0000 	   42.0000 	   58.2560
    0.4196 	  116.3600 	    2.0000 	   42.0000 	   58.3710
    0.5570 	  116.5960 	    2.0000 	   42.0000 	   58.4890
    0.0839 	  116.8200 	    2.0000 	   42.0000 	   58.6010
    0.3128 	  117.0500 	    2.0000 	   42.0000 	   58.7160
    0.2670 	  117.2680 	    2.0000 	   42.0000 	   58.8250
    0.4044 	  117.4880 	    2.0000 	   42.0000 	   58.9350
    0.3433 	  117.7300 	    2.0000 	   42.0000 	   59.0560
    0.3433 	  117.9580 	    2.0000 	   42.0000 	   59.1700
    0.3433 	  118.1700 	    2.0000 	   42.0000 	   59.2760
    0.4044 	  118.3800 	    2.0000 	   42.0000 	   59.3810
    0.3891 	  118.5960 	    2.0000 	   42.0000 	   59.4890
    0.3738 	  118.8020 	    2.0000 	   42.0000 	   59.5920
    0.3433 	  119.0040 	    2.0000 	   42.0000 	   59.6930
    0.4196 	  119.2140 	    2.0000 	   42.0000 	   59.7981
    0.3891 	  119.4420 	    2.0000 	   42.0000 	   59.9121
    0.3281 	  119.6800 	    2.0000 	   43.0000 	    0.0311
    0.3738 	  119.9200 	    2.0000 	   43.0000 	    0.1511
    0.3738 	  120.1700 	    2.0000 	   43.0000 	    0.2761
    0.3738 	  120.3980 	    2.0000 	   43.0000 	    0.3901
    0.3433 	  120.6380 	    2.0000 	   43.0000 	    0.5101
    0.0687 	  120.8620 	    2.0000 	   43.0000 	    0.6221
    0.5264 	  121.0940 	    2.0000 	   43.0000 	    0.7381
    0.3281 	  121.3200 	    2.0000 	   43.0000 	    0.8511
    0.3891 	  121.5660 	    2.0000 	   43.0000 	    0.9741
    0.3586 	  121.7980 	    2.0000 	   43.0000 	    1.0901
    0.3128 	  122.0400 	    2.0000 	   43.0000 	    1.2111
    0.3738 	  122.2720 	    2.0000 	   43.0000 	    1.3271
    0.2365 	  122.4920 	    2.0000 	   43.0000 	    1.4371