File: instron/deadline/hysteresis/bare_10_1/bare_10_1_60_120.txt
Thayer School of Engineering        Instron 4442 Mechanical Testing System
7/9/2018 2:49:55 AM

  Force (N)	Extension (mm)	Not Used	Not Used	Not Used	     Hour	    Minute	    Second
    0.1602 	    2.0520 	    2.0000 	   50.0000 	   23.7794
    0.3891 	    2.2420 	    2.0000 	   50.0000 	   23.8745
    0.3433 	    2.4540 	    2.0000 	   50.0000 	   23.9805
    0.3738 	    2.6620 	    2.0000 	   50.0000 	   24.0845
    0.3891 	    2.8220 	    2.0000 	   50.0000 	   24.1645
    0.3586 	    3.0140 	    2.0000 	   50.0000 	   24.2605
    0.3738 	    3.2080 	    2.0000 	   50.0000 	   24.3575
    0.2670 	    3.4040 	    2.0000 	   50.0000 	   24.4555
    0.3281 	    3.5980 	    2.0000 	   50.0000 	   24.5525
    0.3738 	    3.8100 	    2.0000 	   50.0000 	   24.6585
    0.3433 	    3.9720 	    2.0000 	   50.0000 	   24.7395
    0.1907 	    4.1860 	    2.0000 	   50.0000 	   24.8465
    0.3433 	    4.3900 	    2.0000 	   50.0000 	   24.9485
    0.5264 	    4.6080 	    2.0000 	   50.0000 	   25.0575
    0.2823 	    4.8180 	    2.0000 	   50.0000 	   25.1625
    0.4959 	    5.0320 	    2.0000 	   50.0000 	   25.2695
    0.2976 	    5.2400 	    2.0000 	   50.0000 	   25.3735
    0.3738 	    5.4400 	    2.0000 	   50.0000 	   25.4735
    0.5722 	    5.6380 	    2.0000 	   50.0000 	   25.5725
    0.2976 	    5.8100 	    2.0000 	   50.0000 	   25.6586
    0.2976 	    6.0260 	    2.0000 	   50.0000 	   25.7666
    0.4349 	    6.2440 	    2.0000 	   50.0000 	   25.8756
    0.1907 	    6.4520 	    2.0000 	   50.0000 	   25.9796
    0.5112 	    6.5680 	    2.0000 	   50.0000 	   26.0376
    0.4044 	    6.7320 	    2.0000 	   50.0000 	   26.1196
    0.3891 	    6.8680 	    2.0000 	   50.0000 	   26.1876
    0.5722 	    6.9980 	    2.0000 	   50.0000 	   26.2526
    0.3281 	    7.1320 	    2.0000 	   50.0000 	   26.3196
    0.3433 	    7.2680 	    2.0000 	   50.0000 	   26.3876
    0.5264 	    7.4000 	    2.0000 	   50.0000 	   26.4536
    0.3433 	    7.5820 	    2.0000 	   50.0000 	   26.5436
    0.5264 	    7.7080 	    2.0000 	   50.0000 	   26.6076
    0.2060 	    7.8380 	    2.0000 	   50.0000 	   26.6726
    0.3433 	    7.9680 	    2.0000 	   50.0000 	   26.7376
    0.3891 	    8.1000 	    2.0000 	   50.0000 	   26.8036
    0.3738 	    8.2300 	    2.0000 	   50.0000 	   26.8686
    0.5112 	    8.3700 	    2.0000 	   50.0000 	   26.9386
    0.3738 	    8.4980 	    2.0000 	   50.0000 	   27.0026
    0.0381 	    8.6220 	    2.0000 	   50.0000 	   27.0646
    0.4959 	    8.8060 	    2.0000 	   50.0000 	   27.1566
    0.3891 	    8.9340 	    2.0000 	   50.0000 	   27.2206
    0.3586 	    9.0580 	    2.0000 	   50.0000 	   27.2826
    0.3891 	    9.1840 	    2.0000 	   50.0000 	   27.3457
    0.4044 	    9.3100 	    2.0000 	   50.0000 	   27.4087
    0.3738 	    9.4420 	    2.0000 	   50.0000 	   27.4747
    0.4349 	    9.5680 	    2.0000 	   50.0000 	   27.5377
    0.4349 	    9.6960 	    2.0000 	   50.0000 	   27.6017
    0.5264 	    9.8220 	    2.0000 	   50.0000 	   27.6647
    0.6027 	    9.9580 	    2.0000 	   50.0000 	   27.7327
    0.3586 	   10.0860 	    2.0000 	   50.0000 	   27.7967
    0.4654 	   10.2120 	    2.0000 	   50.0000 	   27.8597
    0.5112 	   10.3380 	    2.0000 	   50.0000 	   27.9227
    0.5570 	   10.4600 	    2.0000 	   50.0000 	   27.9837
    0.5112 	   10.5920 	    2.0000 	   50.0000 	   28.0497
    0.3128 	   10.7160 	    2.0000 	   50.0000 	   28.1117
    0.0839 	   10.8440 	    2.0000 	   50.0000 	   28.1757
    0.4501 	   10.9700 	    2.0000 	   50.0000 	   28.2387
    0.3433 	   11.0960 	    2.0000 	   50.0000 	   28.3017
    0.3128 	   11.2180 	    2.0000 	   50.0000 	   28.3627
    0.4807 	   11.3420 	    2.0000 	   50.0000 	   28.4247
    0.4501 	   11.4640 	    2.0000 	   50.0000 	   28.4857
    0.3281 	   11.5960 	    2.0000 	   50.0000 	   28.5517
    0.5570 	   11.7200 	    2.0000 	   50.0000 	   28.6137
    0.4044 	   11.8700 	    2.0000 	   50.0000 	   28.6887
    0.4959 	   11.9960 	    2.0000 	   50.0000 	   28.7517
    0.4654 	   12.1120 	    2.0000 	   50.0000 	   28.8097
    0.4196 	   12.2340 	    2.0000 	   50.0000 	   28.8707
    0.5112 	   12.3640 	    2.0000 	   50.0000 	   28.9357
    0.4044 	   12.4820 	    2.0000 	   50.0000 	   28.9947
    0.4196 	   12.6100 	    2.0000 	   50.0000 	   29.0588
    0.3891 	   12.7360 	    2.0000 	   50.0000 	   29.1218
    0.4807 	   12.8580 	    2.0000 	   50.0000 	   29.1828
    0.4349 	   12.9900 	    2.0000 	   50.0000 	   29.2488
    0.1755 	   13.1100 	    2.0000 	   50.0000 	   29.3088
    0.3738 	   13.2360 	    2.0000 	   50.0000 	   29.3718
    0.3891 	   13.3720 	    2.0000 	   50.0000 	   29.4398
    0.4654 	   13.4920 	    2.0000 	   50.0000 	   29.4998
    0.5875 	   13.6200 	    2.0000 	   50.0000 	   29.5638
    0.2060 	   13.7500 	    2.0000 	   50.0000 	   29.6288
    0.4654 	   13.8700 	    2.0000 	   50.0000 	   29.6888
    0.4959 	   14.0000 	    2.0000 	   50.0000 	   29.7538
    0.5112 	   14.1340 	    2.0000 	   50.0000 	   29.8208
    0.5417 	   14.2600 	    2.0000 	   50.0000 	   29.8838
    0.4349 	   14.3860 	    2.0000 	   50.0000 	   29.9468
    0.4349 	   14.5060 	    2.0000 	   50.0000 	   30.0068
    0.4654 	   14.6400 	    2.0000 	   50.0000 	   30.0738
    0.3891 	   14.7660 	    2.0000 	   50.0000 	   30.1368
    0.4196 	   14.9020 	    2.0000 	   50.0000 	   30.2048
    0.3738 	   15.0280 	    2.0000 	   50.0000 	   30.2678
    0.4959 	   15.1600 	    2.0000 	   50.0000 	   30.3338
    0.6027 	   15.2800 	    2.0000 	   50.0000 	   30.3938
    0.4044 	   15.4080 	    2.0000 	   50.0000 	   30.4578
    0.4959 	   15.5320 	    2.0000 	   50.0000 	   30.5198
    0.4501 	   15.6560 	    2.0000 	   50.0000 	   30.5818
    0.5570 	   15.8100 	    2.0000 	   50.0000 	   30.6588
    0.4196 	   15.9420 	    2.0000 	   50.0000 	   30.7248
    0.5112 	   16.0680 	    2.0000 	   50.0000 	   30.7878
    0.5264 	   16.2000 	    2.0000 	   50.0000 	   30.8539
    0.4959 	   16.3320 	    2.0000 	   50.0000 	   30.9199
    0.5112 	   16.4580 	    2.0000 	   50.0000 	   30.9829
    0.4044 	   16.5820 	    2.0000 	   50.0000 	   31.0449
    0.6180 	   16.7020 	    2.0000 	   50.0000 	   31.1049
    0.3891 	   16.8340 	    2.0000 	   50.0000 	   31.1709
    0.5264 	   16.9620 	    2.0000 	   50.0000 	   31.2349
    0.5264 	   17.0900 	    2.0000 	   50.0000 	   31.2989
    0.5112 	   17.2260 	    2.0000 	   50.0000 	   31.3669
    0.4501 	   17.3480 	    2.0000 	   50.0000 	   31.4279
    0.5112 	   17.4740 	    2.0000 	   50.0000 	   31.4909
    0.5264 	   17.6020 	    2.0000 	   50.0000 	   31.5549
    0.4959 	   17.7360 	    2.0000 	   50.0000 	   31.6219
    0.4196 	   17.8600 	    2.0000 	   50.0000 	   31.6839
    0.3128 	   17.9940 	    2.0000 	   50.0000 	   31.7509
    0.6332 	   18.1160 	    2.0000 	   50.0000 	   31.8119
    0.5875 	   18.2460 	    2.0000 	   50.0000 	   31.8769
    0.4654 	   18.3720 	    2.0000 	   50.0000 	   31.9399
    0.4349 	   18.5040 	    2.0000 	   50.0000 	   32.0059
    0.5570 	   18.6440 	    2.0000 	   50.0000 	   32.0759
    0.6638 	   18.7640 	    2.0000 	   50.0000 	   32.1359
    0.5570 	   18.8960 	    2.0000 	   50.0000 	   32.2019
    0.5722 	   19.0280 	    2.0000 	   50.0000 	   32.2679
    0.5264 	   19.1620 	    2.0000 	   50.0000 	   32.3349
    0.4654 	   19.2920 	    2.0000 	   50.0000 	   32.3999
    0.5112 	   19.4200 	    2.0000 	   50.0000 	   32.4639
    0.4501 	   19.5460 	    2.0000 	   50.0000 	   32.5269
    0.5722 	   19.6780 	    2.0000 	   50.0000 	   32.5920
    0.7858 	   19.8100 	    2.0000 	   50.0000 	   32.6590
    0.2670 	   19.9400 	    2.0000 	   50.0000 	   32.7240
    0.7401 	   20.0640 	    2.0000 	   50.0000 	   32.7860
    0.4654 	   20.1940 	    2.0000 	   50.0000 	   32.8510
    0.3738 	   20.3200 	    2.0000 	   50.0000 	   32.9140
    0.5417 	   20.4420 	    2.0000 	   50.0000 	   32.9750
    0.4959 	   20.5700 	    2.0000 	   50.0000 	   33.0390
    0.5417 	   20.7060 	    2.0000 	   50.0000 	   33.1070
    0.5112 	   20.8340 	    2.0000 	   50.0000 	   33.1710
    0.4654 	   20.9620 	    2.0000 	   50.0000 	   33.2350
    0.2518 	   21.0900 	    2.0000 	   50.0000 	   33.2990
    0.5112 	   21.2180 	    2.0000 	   50.0000 	   33.3630
    0.6180 	   21.3440 	    2.0000 	   50.0000 	   33.4260
    0.5875 	   21.4720 	    2.0000 	   50.0000 	   33.4900
    0.3738 	   21.6020 	    2.0000 	   50.0000 	   33.5550
    0.6943 	   21.7360 	    2.0000 	   50.0000 	   33.6220
    0.5112 	   21.8560 	    2.0000 	   50.0000 	   33.6820
    0.5875 	   21.9920 	    2.0000 	   50.0000 	   33.7500
    0.4654 	   22.1120 	    2.0000 	   50.0000 	   33.8100
    0.5722 	   22.2400 	    2.0000 	   50.0000 	   33.8740
    0.4654 	   22.3640 	    2.0000 	   50.0000 	   33.9360
    0.1297 	   22.4840 	    2.0000 	   50.0000 	   33.9960
    0.5722 	   22.6120 	    2.0000 	   50.0000 	   34.0600
    0.5722 	   22.7500 	    2.0000 	   50.0000 	   34.1290
    0.6180 	   22.8760 	    2.0000 	   50.0000 	   34.1920
    0.4196 	   23.0060 	    2.0000 	   50.0000 	   34.2570
    0.5570 	   23.1460 	    2.0000 	   50.0000 	   34.3270
    0.5875 	   23.2680 	    2.0000 	   50.0000 	   34.3881
    0.5722 	   23.3960 	    2.0000 	   50.0000 	   34.4521
    0.4654 	   23.5220 	    2.0000 	   50.0000 	   34.5151
    0.5875 	   23.6560 	    2.0000 	   50.0000 	   34.5821
    0.4349 	   23.8080 	    2.0000 	   50.0000 	   34.6581
    0.5112 	   23.9280 	    2.0000 	   50.0000 	   34.7181
    0.5264 	   24.0600 	    2.0000 	   50.0000 	   34.7841
    0.5112 	   24.1960 	    2.0000 	   50.0000 	   34.8521
    0.5875 	   24.3240 	    2.0000 	   50.0000 	   34.9161
    0.7248 	   24.4460 	    2.0000 	   50.0000 	   34.9771
    0.6180 	   24.5720 	    2.0000 	   50.0000 	   35.0401
    0.5264 	   24.7080 	    2.0000 	   50.0000 	   35.1081
    0.6485 	   24.8400 	    2.0000 	   50.0000 	   35.1741
    0.5875 	   24.9720 	    2.0000 	   50.0000 	   35.2401
    0.4807 	   25.1040 	    2.0000 	   50.0000 	   35.3061
    0.2365 	   25.2420 	    2.0000 	   50.0000 	   35.3751
    0.4044 	   25.3720 	    2.0000 	   50.0000 	   35.4401
    0.4959 	   25.5020 	    2.0000 	   50.0000 	   35.5051
    0.5722 	   25.6360 	    2.0000 	   50.0000 	   35.5721
    0.3433 	   25.7640 	    2.0000 	   50.0000 	   35.6361
    0.5875 	   25.8900 	    2.0000 	   50.0000 	   35.6991
    0.5570 	   26.0220 	    2.0000 	   50.0000 	   35.7651
    0.4349 	   26.1600 	    2.0000 	   50.0000 	   35.8341
    0.6638 	   26.2920 	    2.0000 	   50.0000 	   35.9001
    0.5722 	   26.4220 	    2.0000 	   50.0000 	   35.9651
    0.6180 	   26.5520 	    2.0000 	   50.0000 	   36.0301
    0.4959 	   26.6860 	    2.0000 	   50.0000 	   36.0972
    0.5264 	   26.8120 	    2.0000 	   50.0000 	   36.1602
    0.6485 	   26.9380 	    2.0000 	   50.0000 	   36.2232
    0.3433 	   27.0680 	    2.0000 	   50.0000 	   36.2882
    0.1907 	   27.2020 	    2.0000 	   50.0000 	   36.3552
    0.5112 	   27.3380 	    2.0000 	   50.0000 	   36.4232
    0.6332 	   27.4680 	    2.0000 	   50.0000 	   36.4882
    0.7095 	   27.6000 	    2.0000 	   50.0000 	   36.5542
    0.5417 	   27.7360 	    2.0000 	   50.0000 	   36.6222
    0.6638 	   27.8620 	    2.0000 	   50.0000 	   36.6852
    0.6027 	   27.9980 	    2.0000 	   50.0000 	   36.7532
    0.6485 	   28.1280 	    2.0000 	   50.0000 	   36.8182
    0.7706 	   28.2660 	    2.0000 	   50.0000 	   36.8872
    0.3433 	   28.3980 	    2.0000 	   50.0000 	   36.9532
    0.2213 	   28.5260 	    2.0000 	   50.0000 	   37.0172
    0.6485 	   28.6680 	    2.0000 	   50.0000 	   37.0882
    0.6180 	   28.7940 	    2.0000 	   50.0000 	   37.1512
    0.6180 	   28.9220 	    2.0000 	   50.0000 	   37.2152
    0.6790 	   29.0540 	    2.0000 	   50.0000 	   37.2812
    0.4959 	   29.1880 	    2.0000 	   50.0000 	   37.3482
    0.5264 	   29.3180 	    2.0000 	   50.0000 	   37.4132
    0.4654 	   29.4460 	    2.0000 	   50.0000 	   37.4772
    0.7553 	   29.5780 	    2.0000 	   50.0000 	   37.5432
    0.6332 	   29.7140 	    2.0000 	   50.0000 	   37.6112
    0.5112 	   29.8460 	    2.0000 	   50.0000 	   37.6772
    0.5570 	   29.9700 	    2.0000 	   50.0000 	   37.7392
    0.3281 	   30.0960 	    2.0000 	   50.0000 	   37.8022
    0.7095 	   30.2300 	    2.0000 	   50.0000 	   37.8693
    0.6790 	   30.3620 	    2.0000 	   50.0000 	   37.9353
    0.6790 	   30.4940 	    2.0000 	   50.0000 	   38.0013
    0.3891 	   30.6240 	    2.0000 	   50.0000 	   38.0663
    0.4196 	   30.7580 	    2.0000 	   50.0000 	   38.1333
    0.5722 	   30.8840 	    2.0000 	   50.0000 	   38.1963
    0.5875 	   31.0200 	    2.0000 	   50.0000 	   38.2643
    0.4959 	   31.1560 	    2.0000 	   50.0000 	   38.3323
    0.6332 	   31.2840 	    2.0000 	   50.0000 	   38.3963
    0.6027 	   31.4180 	    2.0000 	   50.0000 	   38.4633
    0.5875 	   31.5500 	    2.0000 	   50.0000 	   38.5293
    0.4807 	   31.6960 	    2.0000 	   50.0000 	   38.6023
    0.7858 	   31.8220 	    2.0000 	   50.0000 	   38.6653
    0.7401 	   31.9520 	    2.0000 	   50.0000 	   38.7303
    0.6790 	   32.0820 	    2.0000 	   50.0000 	   38.7953
    0.6027 	   32.2260 	    2.0000 	   50.0000 	   38.8673
    0.3433 	   32.3560 	    2.0000 	   50.0000 	   38.9323
    0.6027 	   32.4880 	    2.0000 	   50.0000 	   38.9983
    0.5722 	   32.6200 	    2.0000 	   50.0000 	   39.0643
    0.5875 	   32.7560 	    2.0000 	   50.0000 	   39.1313
    0.5417 	   32.8900 	    2.0000 	   50.0000 	   39.1983
    0.7858 	   33.0200 	    2.0000 	   50.0000 	   39.2633
    0.7095 	   33.1640 	    2.0000 	   50.0000 	   39.3353
    0.7858 	   33.2980 	    2.0000 	   50.0000 	   39.4023
    0.5417 	   33.4280 	    2.0000 	   50.0000 	   39.4673
    0.6485 	   33.5640 	    2.0000 	   50.0000 	   39.5353
    0.7401 	   33.6960 	    2.0000 	   50.0000 	   39.6014
    0.7401 	   33.8220 	    2.0000 	   50.0000 	   39.6644
    0.6485 	   33.9600 	    2.0000 	   50.0000 	   39.7334
    0.5722 	   34.0860 	    2.0000 	   50.0000 	   39.7964
    0.7095 	   34.2220 	    2.0000 	   50.0000 	   39.8644
    0.4654 	   34.3500 	    2.0000 	   50.0000 	   39.9284
    0.6790 	   34.4840 	    2.0000 	   50.0000 	   39.9954
    0.5570 	   34.6160 	    2.0000 	   50.0000 	   40.0614
    0.7553 	   34.7460 	    2.0000 	   50.0000 	   40.1264
    0.7095 	   34.8760 	    2.0000 	   50.0000 	   40.1914
    0.5417 	   35.0100 	    2.0000 	   50.0000 	   40.2584
    0.4959 	   35.1500 	    2.0000 	   50.0000 	   40.3284
    0.7248 	   35.2740 	    2.0000 	   50.0000 	   40.3904
    0.5875 	   35.4020 	    2.0000 	   50.0000 	   40.4544
    0.7248 	   35.5360 	    2.0000 	   50.0000 	   40.5214
    0.6027 	   35.6820 	    2.0000 	   50.0000 	   40.5944
    0.6027 	   35.8120 	    2.0000 	   50.0000 	   40.6594
    0.5264 	   35.9440 	    2.0000 	   50.0000 	   40.7254
    0.8164 	   36.0800 	    2.0000 	   50.0000 	   40.7934
    0.6485 	   36.2180 	    2.0000 	   50.0000 	   40.8624
    0.6027 	   36.3460 	    2.0000 	   50.0000 	   40.9264
    0.7553 	   36.4780 	    2.0000 	   50.0000 	   40.9924
    0.4959 	   36.6100 	    2.0000 	   50.0000 	   41.0584
    0.6638 	   36.7400 	    2.0000 	   50.0000 	   41.1234
    0.4349 	   36.8700 	    2.0000 	   50.0000 	   41.1884
    0.7095 	   37.0100 	    2.0000 	   50.0000 	   41.2584
    0.6485 	   37.1540 	    2.0000 	   50.0000 	   41.3305
    0.7095 	   37.2880 	    2.0000 	   50.0000 	   41.3975
    0.7706 	   37.4220 	    2.0000 	   50.0000 	   41.4645
    0.6180 	   37.5600 	    2.0000 	   50.0000 	   41.5335
    0.8011 	   37.7060 	    2.0000 	   50.0000 	   41.6065
    0.6943 	   37.8380 	    2.0000 	   50.0000 	   41.6725
    0.7706 	   37.9720 	    2.0000 	   50.0000 	   41.7395
    0.6027 	   38.1020 	    2.0000 	   50.0000 	   41.8045
    0.6638 	   38.2400 	    2.0000 	   50.0000 	   41.8735
    0.6638 	   38.3740 	    2.0000 	   50.0000 	   41.9405
    0.6790 	   38.5060 	    2.0000 	   50.0000 	   42.0065
    0.5570 	   38.6420 	    2.0000 	   50.0000 	   42.0745
    0.4044 	   38.7780 	    2.0000 	   50.0000 	   42.1425
    0.6485 	   38.9200 	    2.0000 	   50.0000 	   42.2135
    0.5570 	   39.0500 	    2.0000 	   50.0000 	   42.2785
    0.4959 	   39.1920 	    2.0000 	   50.0000 	   42.3495
    0.8164 	   39.3260 	    2.0000 	   50.0000 	   42.4165
    0.8164 	   39.4580 	    2.0000 	   50.0000 	   42.4815
    0.3128 	   39.5940 	    2.0000 	   50.0000 	   42.5505
    0.6027 	   39.7300 	    2.0000 	   50.0000 	   42.6185
    0.6638 	   39.8780 	    2.0000 	   50.0000 	   42.6925
    0.6180 	   40.0180 	    2.0000 	   50.0000 	   42.7625
    0.6638 	   40.1620 	    2.0000 	   50.0000 	   42.8345
    0.6027 	   40.2960 	    2.0000 	   50.0000 	   42.9015
    0.7095 	   40.4300 	    2.0000 	   50.0000 	   42.9685
    0.5722 	   40.5660 	    2.0000 	   50.0000 	   43.0365
    0.7706 	   40.7060 	    2.0000 	   50.0000 	   43.1066
    0.7706 	   40.8440 	    2.0000 	   50.0000 	   43.1756
    0.8316 	   40.9800 	    2.0000 	   50.0000 	   43.2436
    0.6332 	   41.1160 	    2.0000 	   50.0000 	   43.3116
    0.7706 	   41.2620 	    2.0000 	   50.0000 	   43.3846
    0.6790 	   41.4000 	    2.0000 	   50.0000 	   43.4536
    0.7706 	   41.5280 	    2.0000 	   50.0000 	   43.5176
    0.5417 	   41.6620 	    2.0000 	   50.0000 	   43.5846
    0.8316 	   41.7960 	    2.0000 	   50.0000 	   43.6516
    0.7858 	   41.9320 	    2.0000 	   50.0000 	   43.7196
    0.8469 	   42.0700 	    2.0000 	   50.0000 	   43.7886
    0.7858 	   42.2100 	    2.0000 	   50.0000 	   43.8586
    0.8316 	   42.3400 	    2.0000 	   50.0000 	   43.9236
    0.5875 	   42.4760 	    2.0000 	   50.0000 	   43.9916
    0.6943 	   42.6120 	    2.0000 	   50.0000 	   44.0596
    0.5417 	   42.7520 	    2.0000 	   50.0000 	   44.1296
    0.8164 	   42.8860 	    2.0000 	   50.0000 	   44.1966
    0.6638 	   43.0280 	    2.0000 	   50.0000 	   44.2676
    0.7095 	   43.1720 	    2.0000 	   50.0000 	   44.3396
    0.7401 	   43.3100 	    2.0000 	   50.0000 	   44.4086
    0.7401 	   43.4480 	    2.0000 	   50.0000 	   44.4776
    0.9079 	   43.5780 	    2.0000 	   50.0000 	   44.5426
    0.6943 	   43.7140 	    2.0000 	   50.0000 	   44.6106
    0.7401 	   43.8680 	    2.0000 	   50.0000 	   44.6876
    0.7553 	   44.0000 	    2.0000 	   50.0000 	   44.7536
    0.6790 	   44.1360 	    2.0000 	   50.0000 	   44.8217
    0.7248 	   44.2640 	    2.0000 	   50.0000 	   44.8857
    0.8927 	   44.3980 	    2.0000 	   50.0000 	   44.9527
    0.8316 	   44.5340 	    2.0000 	   50.0000 	   45.0207
    0.6485 	   44.6660 	    2.0000 	   50.0000 	   45.0867
    0.6180 	   44.8060 	    2.0000 	   50.0000 	   45.1567
    0.8164 	   44.9400 	    2.0000 	   50.0000 	   45.2237
    0.6790 	   45.0780 	    2.0000 	   50.0000 	   45.2927
    0.9384 	   45.2200 	    2.0000 	   50.0000 	   45.3637
    0.5722 	   45.3580 	    2.0000 	   50.0000 	   45.4327
    0.7553 	   45.4980 	    2.0000 	   50.0000 	   45.5027
    0.8011 	   45.6320 	    2.0000 	   50.0000 	   45.5697
    0.9079 	   45.7660 	    2.0000 	   50.0000 	   45.6367
    0.7095 	   45.9060 	    2.0000 	   50.0000 	   45.7067
    0.7858 	   46.0420 	    2.0000 	   50.0000 	   45.7747
    0.8011 	   46.1840 	    2.0000 	   50.0000 	   45.8457
    0.8774 	   46.3140 	    2.0000 	   50.0000 	   45.9107
    0.8469 	   46.4460 	    2.0000 	   50.0000 	   45.9767
    0.6943 	   46.5760 	    2.0000 	   50.0000 	   46.0417
    0.7401 	   46.8220 	    2.0000 	   50.0000 	   46.1647
    0.8927 	   46.9900 	    2.0000 	   50.0000 	   46.2487
    0.7095 	   47.1100 	    2.0000 	   50.0000 	   46.3087
    0.7248 	   47.2540 	    2.0000 	   50.0000 	   46.3807
    0.6943 	   47.3940 	    2.0000 	   50.0000 	   46.4507
    0.6638 	   47.5380 	    2.0000 	   50.0000 	   46.5227
    0.6485 	   47.6740 	    2.0000 	   50.0000 	   46.5908
    0.7401 	   47.8180 	    2.0000 	   50.0000 	   46.6628
    0.7553 	   47.9580 	    2.0000 	   50.0000 	   46.7328
    0.8469 	   48.0980 	    2.0000 	   50.0000 	   46.8028
    0.7706 	   48.2420 	    2.0000 	   50.0000 	   46.8748
    0.7706 	   48.3820 	    2.0000 	   50.0000 	   46.9448
    0.7095 	   48.5200 	    2.0000 	   50.0000 	   47.0138
    0.8469 	   48.6560 	    2.0000 	   50.0000 	   47.0818
    0.8621 	   48.7940 	    2.0000 	   50.0000 	   47.1508
    0.7553 	   48.9320 	    2.0000 	   50.0000 	   47.2198
    0.8621 	   49.0660 	    2.0000 	   50.0000 	   47.2868
    0.4959 	   49.2080 	    2.0000 	   50.0000 	   47.3578
    1.0605 	   49.3500 	    2.0000 	   50.0000 	   47.4288
    0.8774 	   49.4840 	    2.0000 	   50.0000 	   47.4958
    0.8164 	   49.6180 	    2.0000 	   50.0000 	   47.5628
    0.7401 	   49.7520 	    2.0000 	   50.0000 	   47.6298
    0.7553 	   49.8960 	    2.0000 	   50.0000 	   47.7018
    0.7858 	   50.0360 	    2.0000 	   50.0000 	   47.7718
    0.8469 	   50.1800 	    2.0000 	   50.0000 	   47.8438
    0.7401 	   50.3200 	    2.0000 	   50.0000 	   47.9138
    0.5875 	   50.4640 	    2.0000 	   50.0000 	   47.9858
    0.9232 	   50.6060 	    2.0000 	   50.0000 	   48.0568
    0.7858 	   50.7500 	    2.0000 	   50.0000 	   48.1288
    0.6943 	   50.8860 	    2.0000 	   50.0000 	   48.1968
    0.8621 	   51.0240 	    2.0000 	   50.0000 	   48.2658
    0.5570 	   51.1680 	    2.0000 	   50.0000 	   48.3379
    0.7095 	   51.3040 	    2.0000 	   50.0000 	   48.4059
    0.8469 	   51.4380 	    2.0000 	   50.0000 	   48.4729
    0.8774 	   51.5800 	    2.0000 	   50.0000 	   48.5439
    0.9689 	   51.7240 	    2.0000 	   50.0000 	   48.6159
    0.8469 	   51.8820 	    2.0000 	   50.0000 	   48.6949
    0.7553 	   52.0220 	    2.0000 	   50.0000 	   48.7649
    0.8011 	   52.1620 	    2.0000 	   50.0000 	   48.8349
    0.7553 	   52.3000 	    2.0000 	   50.0000 	   48.9039
    0.8164 	   52.4420 	    2.0000 	   50.0000 	   48.9749
    0.8011 	   52.5760 	    2.0000 	   50.0000 	   49.0419
    0.9232 	   52.7200 	    2.0000 	   50.0000 	   49.1139
    0.8621 	   52.8580 	    2.0000 	   50.0000 	   49.1829
    0.7401 	   52.9960 	    2.0000 	   50.0000 	   49.2519
    1.0452 	   53.1340 	    2.0000 	   50.0000 	   49.3209
    0.9689 	   53.2800 	    2.0000 	   50.0000 	   49.3939
    0.9995 	   53.4240 	    2.0000 	   50.0000 	   49.4659
    0.7553 	   53.5600 	    2.0000 	   50.0000 	   49.5339
    0.8621 	   53.7000 	    2.0000 	   50.0000 	   49.6039
    0.8469 	   53.8380 	    2.0000 	   50.0000 	   49.6729
    0.8011 	   53.9760 	    2.0000 	   50.0000 	   49.7419
    0.7401 	   54.1140 	    2.0000 	   50.0000 	   49.8109
    0.9995 	   54.2580 	    2.0000 	   50.0000 	   49.8829
    0.7706 	   54.3980 	    2.0000 	   50.0000 	   49.9529
    0.8621 	   54.5380 	    2.0000 	   50.0000 	   50.0229
    0.7401 	   54.6760 	    2.0000 	   50.0000 	   50.0920
    0.9537 	   54.8160 	    2.0000 	   50.0000 	   50.1620
    0.9232 	   54.9560 	    2.0000 	   50.0000 	   50.2320
    0.9842 	   55.0960 	    2.0000 	   50.0000 	   50.3020
    0.7858 	   55.2420 	    2.0000 	   50.0000 	   50.3750
    0.6485 	   55.3840 	    2.0000 	   50.0000 	   50.4460
    0.6485 	   55.5240 	    2.0000 	   50.0000 	   50.5160
    0.9537 	   55.6680 	    2.0000 	   50.0000 	   50.5880
    0.7553 	   55.8100 	    2.0000 	   50.0000 	   50.6590
    0.8011 	   55.9560 	    2.0000 	   50.0000 	   50.7320
    0.8774 	   56.0940 	    2.0000 	   50.0000 	   50.8010
    0.8011 	   56.2420 	    2.0000 	   50.0000 	   50.8750
    0.8927 	   56.3820 	    2.0000 	   50.0000 	   50.9450
    0.9232 	   56.5260 	    2.0000 	   50.0000 	   51.0170
    0.9232 	   56.6680 	    2.0000 	   50.0000 	   51.0880
    0.9232 	   56.8100 	    2.0000 	   50.0000 	   51.1590
    0.9384 	   56.9560 	    2.0000 	   50.0000 	   51.2320
    1.1521 	   57.1020 	    2.0000 	   50.0000 	   51.3050
    0.9842 	   57.2520 	    2.0000 	   50.0000 	   51.3800
    0.8774 	   57.3940 	    2.0000 	   50.0000 	   51.4510
    0.8927 	   57.5360 	    2.0000 	   50.0000 	   51.5220
    0.9079 	   57.6760 	    2.0000 	   50.0000 	   51.5920
    0.9079 	   57.8200 	    2.0000 	   50.0000 	   51.6640
    0.8011 	   57.9620 	    2.0000 	   50.0000 	   51.7350
    1.0300 	   58.1060 	    2.0000 	   50.0000 	   51.8071
    0.9537 	   58.2540 	    2.0000 	   50.0000 	   51.8811
    0.9232 	   58.3900 	    2.0000 	   50.0000 	   51.9491
    0.8164 	   58.5300 	    2.0000 	   50.0000 	   52.0191
    0.8774 	   58.6700 	    2.0000 	   50.0000 	   52.0891
    0.9995 	   58.8120 	    2.0000 	   50.0000 	   52.1601
    0.6790 	   58.9560 	    2.0000 	   50.0000 	   52.2321
    0.9384 	   59.0940 	    2.0000 	   50.0000 	   52.3011
    0.9232 	   59.2420 	    2.0000 	   50.0000 	   52.3751
    1.0300 	   59.3840 	    2.0000 	   50.0000 	   52.4461
    0.8011 	   59.5220 	    2.0000 	   50.0000 	   52.5151
    0.9537 	   59.6600 	    2.0000 	   50.0000 	   52.5841
    0.8621 	   59.8100 	    2.0000 	   50.0000 	   52.6591
    0.9384 	   59.9540 	    2.0000 	   50.0000 	   52.7311
    0.8469 	   60.1000 	    2.0000 	   50.0000 	   52.8041
    0.8927 	   60.2440 	    2.0000 	   50.0000 	   52.8761
    0.8774 	   60.3840 	    2.0000 	   50.0000 	   52.9461
    0.8927 	   60.5280 	    2.0000 	   50.0000 	   53.0181
    1.1215 	   60.6700 	    2.0000 	   50.0000 	   53.0891
    0.9079 	   60.8140 	    2.0000 	   50.0000 	   53.1611
    0.8316 	   60.9540 	    2.0000 	   50.0000 	   53.2311
    0.7095 	   61.1040 	    2.0000 	   50.0000 	   53.3061
    1.0300 	   61.2420 	    2.0000 	   50.0000 	   53.3751
    0.9842 	   61.3860 	    2.0000 	   50.0000 	   53.4471
    0.8774 	   61.5300 	    2.0000 	   50.0000 	   53.5191
    0.9995 	   61.6700 	    2.0000 	   50.0000 	   53.5892
    0.8774 	   61.8160 	    2.0000 	   50.0000 	   53.6622
    0.6943 	   61.9580 	    2.0000 	   50.0000 	   53.7332
    0.8774 	   62.1000 	    2.0000 	   50.0000 	   53.8042
    0.8621 	   62.2460 	    2.0000 	   50.0000 	   53.8772
    0.8621 	   62.3700 	    2.0000 	   50.0000 	   53.9392
    0.8469 	   62.5040 	    2.0000 	   50.0000 	   54.0062
    0.6332 	   62.6380 	    2.0000 	   50.0000 	   54.0732
    0.9232 	   62.7660 	    2.0000 	   50.0000 	   54.1372
    0.9232 	   62.9000 	    2.0000 	   50.0000 	   54.2042
    0.8011 	   63.0400 	    2.0000 	   50.0000 	   54.2742
    0.9232 	   63.1820 	    2.0000 	   50.0000 	   54.3452
    0.9232 	   63.3260 	    2.0000 	   50.0000 	   54.4172
    0.8316 	   63.4660 	    2.0000 	   50.0000 	   54.4872
    0.8774 	   63.6060 	    2.0000 	   50.0000 	   54.5572
    0.8011 	   63.7480 	    2.0000 	   50.0000 	   54.6282
    0.7706 	   63.8880 	    2.0000 	   50.0000 	   54.6982
    0.8621 	   64.0300 	    2.0000 	   50.0000 	   54.7692
    0.9689 	   64.1840 	    2.0000 	   50.0000 	   54.8462
    0.8469 	   64.3260 	    2.0000 	   50.0000 	   54.9172
    0.9384 	   64.4700 	    2.0000 	   50.0000 	   54.9882
    0.6943 	   64.6040 	    2.0000 	   50.0000 	   55.0562
    0.9079 	   64.7480 	    2.0000 	   50.0000 	   55.1282
    0.7553 	   64.8880 	    2.0000 	   50.0000 	   55.1982
    1.0147 	   65.0280 	    2.0000 	   50.0000 	   55.2682
    0.8164 	   65.1820 	    2.0000 	   50.0000 	   55.3453
    0.7858 	   65.3260 	    2.0000 	   50.0000 	   55.4173
    0.7858 	   65.4740 	    2.0000 	   50.0000 	   55.4913
    0.7095 	   65.6120 	    2.0000 	   50.0000 	   55.5603
    0.7553 	   65.7560 	    2.0000 	   50.0000 	   55.6323
    0.9079 	   65.9020 	    2.0000 	   50.0000 	   55.7053
    0.9232 	   66.0480 	    2.0000 	   50.0000 	   55.7783
    0.8011 	   66.2040 	    2.0000 	   50.0000 	   55.8563
    0.7858 	   66.3460 	    2.0000 	   50.0000 	   55.9273
    0.8774 	   66.4940 	    2.0000 	   50.0000 	   56.0013
    0.7553 	   66.6360 	    2.0000 	   50.0000 	   56.0723
    0.6790 	   66.7820 	    2.0000 	   50.0000 	   56.1453
    0.7858 	   66.9280 	    2.0000 	   50.0000 	   56.2183
    0.6180 	   67.0720 	    2.0000 	   50.0000 	   56.2903
    0.6943 	   67.2180 	    2.0000 	   50.0000 	   56.3633
    0.7706 	   67.3620 	    2.0000 	   50.0000 	   56.4353
    0.7858 	   67.5060 	    2.0000 	   50.0000 	   56.5073
    0.6943 	   67.6500 	    2.0000 	   50.0000 	   56.5783
    0.8774 	   67.8080 	    2.0000 	   50.0000 	   56.6573
    0.8469 	   67.9520 	    2.0000 	   50.0000 	   56.7293
    0.7553 	   68.1000 	    2.0000 	   50.0000 	   56.8033
    0.6180 	   68.2540 	    2.0000 	   50.0000 	   56.8803
    0.8621 	   68.3920 	    2.0000 	   50.0000 	   56.9493
    0.6180 	   68.5400 	    2.0000 	   50.0000 	   57.0233
    0.6943 	   68.6840 	    2.0000 	   50.0000 	   57.0954
    0.6638 	   68.8280 	    2.0000 	   50.0000 	   57.1674
    0.6027 	   68.9740 	    2.0000 	   50.0000 	   57.2404
    0.6790 	   69.1200 	    2.0000 	   50.0000 	   57.3134
    0.7248 	   69.2640 	    2.0000 	   50.0000 	   57.3854
    0.4196 	   69.4080 	    2.0000 	   50.0000 	   57.4574
    0.5417 	   69.5560 	    2.0000 	   50.0000 	   57.5314
    0.6638 	   69.6980 	    2.0000 	   50.0000 	   57.6024
    0.8164 	   69.8420 	    2.0000 	   50.0000 	   57.6744
    0.7095 	   69.9820 	    2.0000 	   50.0000 	   57.7444
    0.7401 	   70.1300 	    2.0000 	   50.0000 	   57.8184
    0.6332 	   70.2780 	    2.0000 	   50.0000 	   57.8924
    0.7401 	   70.4240 	    2.0000 	   50.0000 	   57.9654
    0.5264 	   70.5680 	    2.0000 	   50.0000 	   58.0374
    0.8164 	   70.7120 	    2.0000 	   50.0000 	   58.1094
    0.7248 	   70.8560 	    2.0000 	   50.0000 	   58.1814
    0.6180 	   71.0020 	    2.0000 	   50.0000 	   58.2544
    0.7401 	   71.1440 	    2.0000 	   50.0000 	   58.3254
    0.6332 	   71.2740 	    2.0000 	   50.0000 	   58.3904
    0.7401 	   71.4040 	    2.0000 	   50.0000 	   58.4554
    0.7553 	   71.5360 	    2.0000 	   50.0000 	   58.5214
    0.8469 	   71.6660 	    2.0000 	   50.0000 	   58.5864
    0.5722 	   71.8100 	    2.0000 	   50.0000 	   58.6584
    0.4044 	   71.9560 	    2.0000 	   50.0000 	   58.7314
    0.6485 	   72.0980 	    2.0000 	   50.0000 	   58.8025
    0.6790 	   72.2500 	    2.0000 	   50.0000 	   58.8785
    0.6485 	   72.3920 	    2.0000 	   50.0000 	   58.9495
    0.6180 	   72.5400 	    2.0000 	   50.0000 	   59.0235
    0.7095 	   72.6880 	    2.0000 	   50.0000 	   59.0975
    0.7553 	   72.8200 	    2.0000 	   50.0000 	   59.1635
    0.4196 	   72.9660 	    2.0000 	   50.0000 	   59.2365
    0.7401 	   73.1080 	    2.0000 	   50.0000 	   59.3075
    0.7553 	   73.2560 	    2.0000 	   50.0000 	   59.3815
    0.6180 	   73.4040 	    2.0000 	   50.0000 	   59.4555
    0.7095 	   73.5500 	    2.0000 	   50.0000 	   59.5285
    0.6027 	   73.6920 	    2.0000 	   50.0000 	   59.5995
    0.8164 	   73.8360 	    2.0000 	   50.0000 	   59.6715
    0.6485 	   73.9840 	    2.0000 	   50.0000 	   59.7455
    0.6943 	   74.1300 	    2.0000 	   50.0000 	   59.8185
    0.5875 	   74.2840 	    2.0000 	   50.0000 	   59.8955
    0.7248 	   74.4280 	    2.0000 	   50.0000 	   59.9675
    0.7248 	   74.5800 	    2.0000 	   51.0000 	    0.0435
    0.5722 	   74.7300 	    2.0000 	   51.0000 	    0.1185
    0.6943 	   74.8760 	    2.0000 	   51.0000 	    0.1915
    0.7095 	   75.0180 	    2.0000 	   51.0000 	    0.2625
    0.7095 	   75.1520 	    2.0000 	   51.0000 	    0.3295
    0.6485 	   75.2860 	    2.0000 	   51.0000 	    0.3965
    0.7706 	   75.4160 	    2.0000 	   51.0000 	    0.4615
    0.7553 	   75.5500 	    2.0000 	   51.0000 	    0.5285
    0.7553 	   75.6960 	    2.0000 	   51.0000 	    0.6016
    0.5264 	   75.8460 	    2.0000 	   51.0000 	    0.6766
    0.5722 	   75.9900 	    2.0000 	   51.0000 	    0.7486
    0.7248 	   76.1400 	    2.0000 	   51.0000 	    0.8236
    0.6485 	   76.2880 	    2.0000 	   51.0000 	    0.8976
    0.5875 	   76.4340 	    2.0000 	   51.0000 	    0.9706
    0.4654 	   76.5780 	    2.0000 	   51.0000 	    1.0426
    0.6943 	   76.7260 	    2.0000 	   51.0000 	    1.1166
    0.6638 	   76.8720 	    2.0000 	   51.0000 	    1.1896
    0.5417 	   77.0160 	    2.0000 	   51.0000 	    1.2616
    0.7553 	   77.1680 	    2.0000 	   51.0000 	    1.3376
    0.7401 	   77.3220 	    2.0000 	   51.0000 	    1.4146
    0.5112 	   77.4700 	    2.0000 	   51.0000 	    1.4886
    0.3586 	   77.6280 	    2.0000 	   51.0000 	    1.5676
    0.6332 	   77.7740 	    2.0000 	   51.0000 	    1.6406
    0.6332 	   77.9220 	    2.0000 	   51.0000 	    1.7146
    0.5875 	   78.0700 	    2.0000 	   51.0000 	    1.7886
    0.6638 	   78.2240 	    2.0000 	   51.0000 	    1.8656
    0.4959 	   78.3680 	    2.0000 	   51.0000 	    1.9366
    0.5722 	   78.5160 	    2.0000 	   51.0000 	    2.0116
    0.6027 	   78.6640 	    2.0000 	   51.0000 	    2.0856
    0.4959 	   78.8080 	    2.0000 	   51.0000 	    2.1576
    0.5570 	   78.9540 	    2.0000 	   51.0000 	    2.2306
    0.5264 	   79.1060 	    2.0000 	   51.0000 	    2.3067
    0.5570 	   79.2540 	    2.0000 	   51.0000 	    2.3807
    0.4807 	   79.4020 	    2.0000 	   51.0000 	    2.4547
    0.6180 	   79.5480 	    2.0000 	   51.0000 	    2.5277
    0.6485 	   79.6940 	    2.0000 	   51.0000 	    2.6007
    0.4654 	   79.8440 	    2.0000 	   51.0000 	    2.6757
    0.6943 	   79.9920 	    2.0000 	   51.0000 	    2.7497
    0.5570 	   80.1460 	    2.0000 	   51.0000 	    2.8267
    0.7095 	   80.3060 	    2.0000 	   51.0000 	    2.9067
    0.6790 	   80.4540 	    2.0000 	   51.0000 	    2.9807
    0.5722 	   80.6060 	    2.0000 	   51.0000 	    3.0567
    0.5722 	   80.7560 	    2.0000 	   51.0000 	    3.1317
    0.4807 	   80.9020 	    2.0000 	   51.0000 	    3.2047
    0.6638 	   81.0500 	    2.0000 	   51.0000 	    3.2787
    0.5112 	   81.2000 	    2.0000 	   51.0000 	    3.3537
    0.5417 	   81.3480 	    2.0000 	   51.0000 	    3.4277
    0.4349 	   81.4940 	    2.0000 	   51.0000 	    3.5007
    0.6180 	   81.6380 	    2.0000 	   51.0000 	    3.5727
    0.6027 	   81.7880 	    2.0000 	   51.0000 	    3.6477
    0.4807 	   81.9380 	    2.0000 	   51.0000 	    3.7227
    0.5417 	   82.0880 	    2.0000 	   51.0000 	    3.7977
    0.4654 	   82.2380 	    2.0000 	   51.0000 	    3.8727
    0.3891 	   82.3860 	    2.0000 	   51.0000 	    3.9467
    0.5875 	   82.5320 	    2.0000 	   51.0000 	    4.0197
    0.6638 	   82.6800 	    2.0000 	   51.0000 	    4.0938
    0.6332 	   82.8320 	    2.0000 	   51.0000 	    4.1698
    0.6332 	   82.9840 	    2.0000 	   51.0000 	    4.2458
    0.6180 	   83.1320 	    2.0000 	   51.0000 	    4.3198
    0.4349 	   83.2820 	    2.0000 	   51.0000 	    4.3948
    0.6180 	   83.4320 	    2.0000 	   51.0000 	    4.4698
    0.5570 	   83.5840 	    2.0000 	   51.0000 	    4.5458
    0.5112 	   83.7340 	    2.0000 	   51.0000 	    4.6208
    0.6027 	   83.8900 	    2.0000 	   51.0000 	    4.6988
    0.5875 	   84.0400 	    2.0000 	   51.0000 	    4.7738
    0.5722 	   84.1940 	    2.0000 	   51.0000 	    4.8508
    0.5417 	   84.3460 	    2.0000 	   51.0000 	    4.9268
    0.5417 	   84.5000 	    2.0000 	   51.0000 	    5.0038
    0.5570 	   84.6540 	    2.0000 	   51.0000 	    5.0808
    0.4501 	   84.7980 	    2.0000 	   51.0000 	    5.1528
    0.4807 	   84.9440 	    2.0000 	   51.0000 	    5.2258
    0.5570 	   85.0920 	    2.0000 	   51.0000 	    5.2998
    0.5264 	   85.2440 	    2.0000 	   51.0000 	    5.3758
    0.5112 	   85.3960 	    2.0000 	   51.0000 	    5.4518
    0.6027 	   85.5460 	    2.0000 	   51.0000 	    5.5268
    0.5722 	   85.6960 	    2.0000 	   51.0000 	    5.6018
    0.4196 	   85.8440 	    2.0000 	   51.0000 	    5.6758
    0.5570 	   85.9920 	    2.0000 	   51.0000 	    5.7498
    0.4807 	   86.1400 	    2.0000 	   51.0000 	    5.8239
    0.6332 	   86.2860 	    2.0000 	   51.0000 	    5.8969
    0.6790 	   86.4220 	    2.0000 	   51.0000 	    5.9649
    0.4349 	   86.5540 	    2.0000 	   51.0000 	    6.0309
    0.5875 	   86.6880 	    2.0000 	   51.0000 	    6.0979
    0.4807 	   86.8340 	    2.0000 	   51.0000 	    6.1709
    0.4959 	   86.9860 	    2.0000 	   51.0000 	    6.2469
    0.3738 	   87.1220 	    2.0000 	   51.0000 	    6.3149
    0.5264 	   87.2600 	    2.0000 	   51.0000 	    6.3839
    0.4807 	   87.4080 	    2.0000 	   51.0000 	    6.4579
    0.4501 	   87.5620 	    2.0000 	   51.0000 	    6.5349
    0.6180 	   87.7120 	    2.0000 	   51.0000 	    6.6099
    0.6332 	   87.8940 	    2.0000 	   51.0000 	    6.7009
    0.4044 	   88.0440 	    2.0000 	   51.0000 	    6.7759
    0.6332 	   88.1980 	    2.0000 	   51.0000 	    6.8529
    0.4501 	   88.3480 	    2.0000 	   51.0000 	    6.9279
    0.4349 	   88.4840 	    2.0000 	   51.0000 	    6.9959
    0.5570 	   88.6200 	    2.0000 	   51.0000 	    7.0639
    0.4044 	   88.7660 	    2.0000 	   51.0000 	    7.1369
    0.5264 	   88.9200 	    2.0000 	   51.0000 	    7.2139
    0.6943 	   89.0740 	    2.0000 	   51.0000 	    7.2909
    0.4807 	   89.2260 	    2.0000 	   51.0000 	    7.3669
    0.5417 	   89.3800 	    2.0000 	   51.0000 	    7.4439
    0.4349 	   89.5340 	    2.0000 	   51.0000 	    7.5209
    0.5112 	   89.6880 	    2.0000 	   51.0000 	    7.5980
    0.4196 	   89.8380 	    2.0000 	   51.0000 	    7.6730
    0.4807 	   89.9960 	    2.0000 	   51.0000 	    7.7520
    0.2060 	   90.1460 	    2.0000 	   51.0000 	    7.8270
    0.5875 	   90.3060 	    2.0000 	   51.0000 	    7.9070
    0.4349 	   90.4580 	    2.0000 	   51.0000 	    7.9830
    0.3891 	   90.6080 	    2.0000 	   51.0000 	    8.0580
    0.6027 	   90.7640 	    2.0000 	   51.0000 	    8.1360
    0.3281 	   90.9200 	    2.0000 	   51.0000 	    8.2140
    0.4807 	   91.0720 	    2.0000 	   51.0000 	    8.2900
    0.5112 	   91.2200 	    2.0000 	   51.0000 	    8.3640
    0.4196 	   91.3680 	    2.0000 	   51.0000 	    8.4380
    0.4501 	   91.5220 	    2.0000 	   51.0000 	    8.5150
    0.6332 	   91.6780 	    2.0000 	   51.0000 	    8.5930
    0.1450 	   91.8320 	    2.0000 	   51.0000 	    8.6700
    0.4654 	   91.9860 	    2.0000 	   51.0000 	    8.7470
    0.3586 	   92.1380 	    2.0000 	   51.0000 	    8.8230
    0.3433 	   92.2800 	    2.0000 	   51.0000 	    8.8940
    0.4959 	   92.4180 	    2.0000 	   51.0000 	    8.9630
    0.3281 	   92.5600 	    2.0000 	   51.0000 	    9.0340
    0.6943 	   92.6980 	    2.0000 	   51.0000 	    9.1030
    0.4349 	   92.8340 	    2.0000 	   51.0000 	    9.1710
    0.5417 	   92.9780 	    2.0000 	   51.0000 	    9.2430
    0.4349 	   93.1200 	    2.0000 	   51.0000 	    9.3141
    0.5264 	   93.2620 	    2.0000 	   51.0000 	    9.3851
    0.4501 	   93.3980 	    2.0000 	   51.0000 	    9.4531
    0.4501 	   93.5400 	    2.0000 	   51.0000 	    9.5241
    0.4349 	   93.6980 	    2.0000 	   51.0000 	    9.6031
    0.3738 	   93.8520 	    2.0000 	   51.0000 	    9.6801
    0.6943 	   94.0040 	    2.0000 	   51.0000 	    9.7561
    0.5264 	   94.1640 	    2.0000 	   51.0000 	    9.8361
    0.4654 	   94.3160 	    2.0000 	   51.0000 	    9.9121
    0.4654 	   94.4740 	    2.0000 	   51.0000 	    9.9911
    0.4196 	   94.6340 	    2.0000 	   51.0000 	   10.0711
    0.4807 	   94.7820 	    2.0000 	   51.0000 	   10.1451
    0.1450 	   94.9360 	    2.0000 	   51.0000 	   10.2221
    0.4044 	   95.0940 	    2.0000 	   51.0000 	   10.3011
    0.4044 	   95.2500 	    2.0000 	   51.0000 	   10.3791
    0.4501 	   95.4060 	    2.0000 	   51.0000 	   10.4571
    0.4959 	   95.5560 	    2.0000 	   51.0000 	   10.5321
    0.3281 	   95.7120 	    2.0000 	   51.0000 	   10.6101
    0.2976 	   95.8880 	    2.0000 	   51.0000 	   10.6981
    0.5264 	   96.0420 	    2.0000 	   51.0000 	   10.7751
    0.3586 	   96.2020 	    2.0000 	   51.0000 	   10.8551
    0.2670 	   96.3560 	    2.0000 	   51.0000 	   10.9321
    0.3586 	   96.5140 	    2.0000 	   51.0000 	   11.0111
    0.4807 	   96.6680 	    2.0000 	   51.0000 	   11.0882
    0.2976 	   96.8260 	    2.0000 	   51.0000 	   11.1672
    0.4501 	   96.9800 	    2.0000 	   51.0000 	   11.2442
    0.4196 	   97.1340 	    2.0000 	   51.0000 	   11.3212
    0.3433 	   97.2860 	    2.0000 	   51.0000 	   11.3972
    0.3433 	   97.4380 	    2.0000 	   51.0000 	   11.4732
    0.3738 	   97.5900 	    2.0000 	   51.0000 	   11.5492
    0.4196 	   97.7520 	    2.0000 	   51.0000 	   11.6302
    0.5722 	   97.9060 	    2.0000 	   51.0000 	   11.7072
    0.4349 	   98.0640 	    2.0000 	   51.0000 	   11.7862
    0.5570 	   98.2280 	    2.0000 	   51.0000 	   11.8682
    0.4349 	   98.3800 	    2.0000 	   51.0000 	   11.9442
    0.4044 	   98.5420 	    2.0000 	   51.0000 	   12.0252
    0.1602 	   98.6960 	    2.0000 	   51.0000 	   12.1022
    0.4044 	   98.8520 	    2.0000 	   51.0000 	   12.1802
    0.6943 	   99.0060 	    2.0000 	   51.0000 	   12.2572
    0.4196 	   99.1660 	    2.0000 	   51.0000 	   12.3372
    0.4654 	   99.3200 	    2.0000 	   51.0000 	   12.4142
    0.4959 	   99.4780 	    2.0000 	   51.0000 	   12.4932
    0.4196 	   99.6380 	    2.0000 	   51.0000 	   12.5732
    0.5112 	   99.8080 	    2.0000 	   51.0000 	   12.6582
    0.3433 	   99.9720 	    2.0000 	   51.0000 	   12.7402
    0.2823 	  100.1280 	    2.0000 	   51.0000 	   12.8183
    0.2976 	  100.2900 	    2.0000 	   51.0000 	   12.8993
    0.4196 	  100.4440 	    2.0000 	   51.0000 	   12.9763
    0.2976 	  100.6000 	    2.0000 	   51.0000 	   13.0543
    0.3281 	  100.7540 	    2.0000 	   51.0000 	   13.1313
    0.3738 	  100.9120 	    2.0000 	   51.0000 	   13.2103
    0.3281 	  101.0720 	    2.0000 	   51.0000 	   13.2903
    0.2670 	  101.2240 	    2.0000 	   51.0000 	   13.3663
    0.1907 	  101.3860 	    2.0000 	   51.0000 	   13.4473
    0.3891 	  101.5400 	    2.0000 	   51.0000 	   13.5243
    0.4349 	  101.6900 	    2.0000 	   51.0000 	   13.5993
    0.3738 	  101.8340 	    2.0000 	   51.0000 	   13.6703
    0.4807 	  101.9900 	    2.0000 	   51.0000 	   13.7493
    0.4654 	  102.1500 	    2.0000 	   51.0000 	   13.8293
    0.4349 	  102.3100 	    2.0000 	   51.0000 	   13.9093
    0.2213 	  102.4620 	    2.0000 	   51.0000 	   13.9853
    0.4044 	  102.6180 	    2.0000 	   51.0000 	   14.0623
    0.3433 	  102.7800 	    2.0000 	   51.0000 	   14.1433
    0.4044 	  102.9360 	    2.0000 	   51.0000 	   14.2213
    0.3281 	  103.0920 	    2.0000 	   51.0000 	   14.2993
    0.4959 	  103.2500 	    2.0000 	   51.0000 	   14.3783
    0.4196 	  103.4120 	    2.0000 	   51.0000 	   14.4593
    0.3738 	  103.5780 	    2.0000 	   51.0000 	   14.5424
    0.3891 	  103.7340 	    2.0000 	   51.0000 	   14.6204
    0.2670 	  103.8920 	    2.0000 	   51.0000 	   14.6994
    0.4349 	  104.0520 	    2.0000 	   51.0000 	   14.7794
    0.2060 	  104.3140 	    2.0000 	   51.0000 	   14.9104
    0.4044 	  104.4640 	    2.0000 	   51.0000 	   14.9854
    0.2976 	  104.6160 	    2.0000 	   51.0000 	   15.0614
    0.4654 	  104.7780 	    2.0000 	   51.0000 	   15.1424
    0.3738 	  104.9360 	    2.0000 	   51.0000 	   15.2214
    0.4654 	  105.0920 	    2.0000 	   51.0000 	   15.2994
    0.4959 	  105.2580 	    2.0000 	   51.0000 	   15.3824
    0.2365 	  105.4140 	    2.0000 	   51.0000 	   15.4604
    0.3128 	  105.5720 	    2.0000 	   51.0000 	   15.5394
    0.1297 	  105.7280 	    2.0000 	   51.0000 	   15.6174
    0.3128 	  105.8860 	    2.0000 	   51.0000 	   15.6964
    0.3433 	  106.0440 	    2.0000 	   51.0000 	   15.7754
    0.2976 	  106.2040 	    2.0000 	   51.0000 	   15.8554
    0.4501 	  106.3620 	    2.0000 	   51.0000 	   15.9334
    0.3281 	  106.5160 	    2.0000 	   51.0000 	   16.0114
    0.4959 	  106.6760 	    2.0000 	   51.0000 	   16.0914
    0.3891 	  106.8300 	    2.0000 	   51.0000 	   16.1684
    0.4349 	  106.9840 	    2.0000 	   51.0000 	   16.2454
    0.4654 	  107.1440 	    2.0000 	   51.0000 	   16.3255
    0.3128 	  107.3040 	    2.0000 	   51.0000 	   16.4055
    0.4654 	  107.4600 	    2.0000 	   51.0000 	   16.4835
    0.3891 	  107.6100 	    2.0000 	   51.0000 	   16.5585
    0.3586 	  107.7620 	    2.0000 	   51.0000 	   16.6345
    0.2518 	  107.9200 	    2.0000 	   51.0000 	   16.7135
    0.5264 	  108.0740 	    2.0000 	   51.0000 	   16.7905
    0.2518 	  108.2300 	    2.0000 	   51.0000 	   16.8685
    0.2976 	  108.3880 	    2.0000 	   51.0000 	   16.9475
    0.4196 	  108.5420 	    2.0000 	   51.0000 	   17.0245
    0.3738 	  108.7020 	    2.0000 	   51.0000 	   17.1045
    0.3281 	  108.8580 	    2.0000 	   51.0000 	   17.1825
    0.4501 	  109.0180 	    2.0000 	   51.0000 	   17.2625
    0.3128 	  109.1820 	    2.0000 	   51.0000 	   17.3445
    0.4196 	  109.3460 	    2.0000 	   51.0000 	   17.4265
    0.3433 	  109.5020 	    2.0000 	   51.0000 	   17.5045
    0.0381 	  109.6540 	    2.0000 	   51.0000 	   17.5805
    0.3281 	  109.8100 	    2.0000 	   51.0000 	   17.6585
    0.4196 	  109.9620 	    2.0000 	   51.0000 	   17.7345
    0.0076 	  110.1120 	    2.0000 	   51.0000 	   17.8095
    0.2365 	  110.2780 	    2.0000 	   51.0000 	   17.8925
    0.2976 	  110.4380 	    2.0000 	   51.0000 	   17.9725
    0.2823 	  110.5960 	    2.0000 	   51.0000 	   18.0516
    0.1450 	  110.7580 	    2.0000 	   51.0000 	   18.1326
    0.1907 	  110.9100 	    2.0000 	   51.0000 	   18.2086
    0.2976 	  111.0700 	    2.0000 	   51.0000 	   18.2886
    0.5112 	  111.2220 	    2.0000 	   51.0000 	   18.3646
    0.3433 	  111.3820 	    2.0000 	   51.0000 	   18.4446
    0.2365 	  111.5400 	    2.0000 	   51.0000 	   18.5236
    0.3586 	  111.6980 	    2.0000 	   51.0000 	   18.6026
    0.4501 	  111.8800 	    2.0000 	   51.0000 	   18.6936
    0.1907 	  112.0360 	    2.0000 	   51.0000 	   18.7716
    0.2060 	  112.1920 	    2.0000 	   51.0000 	   18.8496
    0.3128 	  112.3460 	    2.0000 	   51.0000 	   18.9266
    0.4196 	  112.5020 	    2.0000 	   51.0000 	   19.0046
    0.3891 	  112.6680 	    2.0000 	   51.0000 	   19.0876
    0.3128 	  112.8260 	    2.0000 	   51.0000 	   19.1666
    0.6027 	  112.9840 	    2.0000 	   51.0000 	   19.2456
    0.2670 	  113.1420 	    2.0000 	   51.0000 	   19.3246
    0.4807 	  113.3000 	    2.0000 	   51.0000 	   19.4036
    0.3128 	  113.4580 	    2.0000 	   51.0000 	   19.4826
    0.3891 	  113.6100 	    2.0000 	   51.0000 	   19.5586
    0.3586 	  113.7680 	    2.0000 	   51.0000 	   19.6376
    0.4959 	  113.9240 	    2.0000 	   51.0000 	   19.7156
    0.2976 	  114.0800 	    2.0000 	   51.0000 	   19.7937
    0.3128 	  114.2420 	    2.0000 	   51.0000 	   19.8747
    0.3738 	  114.4020 	    2.0000 	   51.0000 	   19.9547
    0.4654 	  114.5600 	    2.0000 	   51.0000 	   20.0337
    0.2670 	  114.7240 	    2.0000 	   51.0000 	   20.1147
    0.1602 	  114.8820 	    2.0000 	   51.0000 	   20.1947
    0.4044 	  115.0400 	    2.0000 	   51.0000 	   20.2737
    0.2213 	  115.2080 	    2.0000 	   51.0000 	   20.3577
    0.3891 	  115.3700 	    2.0000 	   51.0000 	   20.4387
    0.2365 	  115.5340 	    2.0000 	   51.0000 	   20.5207
    0.2823 	  115.6940 	    2.0000 	   51.0000 	   20.6007
    0.3281 	  115.8560 	    2.0000 	   51.0000 	   20.6817
    0.3738 	  116.0180 	    2.0000 	   51.0000 	   20.7627
    0.3433 	  116.1800 	    2.0000 	   51.0000 	   20.8437
    0.2518 	  116.3340 	    2.0000 	   51.0000 	   20.9207
    0.2060 	  116.5000 	    2.0000 	   51.0000 	   21.0037
    0.4501 	  116.6600 	    2.0000 	   51.0000 	   21.0837
    0.2670 	  116.8140 	    2.0000 	   51.0000 	   21.1607
    0.4349 	  116.9660 	    2.0000 	   51.0000 	   21.2367
    0.1907 	  117.1320 	    2.0000 	   51.0000 	   21.3197
    0.3281 	  117.2880 	    2.0000 	   51.0000 	   21.3977
    0.3738 	  117.4440 	    2.0000 	   51.0000 	   21.4757
    0.2976 	  117.6060 	    2.0000 	   51.0000 	   21.5568
    0.4196 	  117.7700 	    2.0000 	   51.0000 	   21.6388
    0.3281 	  117.9260 	    2.0000 	   51.0000 	   21.7168
    0.3891 	  118.0880 	    2.0000 	   51.0000 	   21.7978
    0.1907 	  118.2480 	    2.0000 	   51.0000 	   21.8778
    0.3586 	  118.4040 	    2.0000 	   51.0000 	   21.9558
    0.3738 	  118.5700 	    2.0000 	   51.0000 	   22.0388
    0.1450 	  118.7320 	    2.0000 	   51.0000 	   22.1198
    0.3738 	  118.8960 	    2.0000 	   51.0000 	   22.2018
    0.3128 	  119.0560 	    2.0000 	   51.0000 	   22.2818
    0.4044 	  119.2180 	    2.0000 	   51.0000 	   22.3628
    0.1602 	  119.3820 	    2.0000 	   51.0000 	   22.4448
    0.1450 	  119.5400 	    2.0000 	   51.0000 	   22.5238
    0.3128 	  119.7040 	    2.0000 	   51.0000 	   22.6058
    0.2976 	  119.8580 	    2.0000 	   51.0000 	   22.6828
    0.4196 	  120.0280 	    2.0000 	   51.0000 	   22.7678
    0.2976 	  120.2000 	    2.0000 	   51.0000 	   22.8538
    0.4349 	  120.3580 	    2.0000 	   51.0000 	   22.9328
    0.2365 	  120.5200 	    2.0000 	   51.0000 	   23.0138
    0.2976 	  120.6820 	    2.0000 	   51.0000 	   23.0948
    0.2823 	  120.8400 	    2.0000 	   51.0000 	   23.1738
    0.3586 	  120.9960 	    2.0000 	   51.0000 	   23.2519
    0.2670 	  121.1560 	    2.0000 	   51.0000 	   23.3319
    0.2518 	  121.3160 	    2.0000 	   51.0000 	   23.4119
    0.3128 	  121.4700 	    2.0000 	   51.0000 	   23.4889
    0.3433 	  121.6320 	    2.0000 	   51.0000 	   23.5699
    0.4044 	  121.7940 	    2.0000 	   51.0000 	   23.6509
    0.3128 	  121.9540 	    2.0000 	   51.0000 	   23.7309
    0.4044 	  122.1180 	    2.0000 	   51.0000 	   23.8129
    0.1144 	  122.2780 	    2.0000 	   51.0000 	   23.8929
    0.1907 	  122.4360 	    2.0000 	   51.0000 	   23.9719