File: instron/independence/hysterisis/bad_l15w3_pre15/b_l15w3_25_60_pre15_nonstop.txt
Thayer School of Engineering        Instron 4442 Mechanical Testing System
7/5/2018 4:39:26 AM

  Force (N)	Extension (mm)	Not Used	Not Used	Not Used	     Hour	    Minute	    Second
    1.4420 	    1.0250 	    4.0000 	   39.0000 	   54.9713
    1.3657 	    1.2150 	    4.0000 	   39.0000 	   55.1613
    1.2436 	    1.3970 	    4.0000 	   39.0000 	   55.3433
    1.2894 	    1.5620 	    4.0000 	   39.0000 	   55.5084
    1.4878 	    1.7310 	    4.0000 	   39.0000 	   55.6774
    1.6251 	    1.9160 	    4.0000 	   39.0000 	   55.8624
    1.3199 	    2.1230 	    4.0000 	   39.0000 	   56.0694
    1.6251 	    2.3260 	    4.0000 	   39.0000 	   56.2724
    1.5183 	    2.5180 	    4.0000 	   39.0000 	   56.4644
    1.4115 	    2.7320 	    4.0000 	   39.0000 	   56.6784
    1.5793 	    2.9190 	    4.0000 	   39.0000 	   56.8654
    1.4267 	    3.0980 	    4.0000 	   39.0000 	   57.0444
    1.5183 	    3.2430 	    4.0000 	   39.0000 	   57.1894
    1.4878 	    3.3520 	    4.0000 	   39.0000 	   57.2985
    1.5946 	    3.4970 	    4.0000 	   39.0000 	   57.4435
    1.4420 	    3.6270 	    4.0000 	   39.0000 	   57.5735
    1.6251 	    3.7600 	    4.0000 	   39.0000 	   57.7065
    1.6403 	    3.8940 	    4.0000 	   39.0000 	   57.8405
    1.5183 	    4.0260 	    4.0000 	   39.0000 	   57.9725
    1.5640 	    4.1750 	    4.0000 	   39.0000 	   58.1215
    1.5946 	    4.2840 	    4.0000 	   39.0000 	   58.2305
    1.5183 	    4.4280 	    4.0000 	   39.0000 	   58.3745
    1.7166 	    4.5540 	    4.0000 	   39.0000 	   58.5005
    1.7472 	    4.6810 	    4.0000 	   39.0000 	   58.6275
    1.5946 	    4.8090 	    4.0000 	   39.0000 	   58.7555
    1.5946 	    4.9360 	    4.0000 	   39.0000 	   58.8825
    1.6709 	    5.0940 	    4.0000 	   39.0000 	   59.0406
    1.5640 	    5.2100 	    4.0000 	   39.0000 	   59.1566
    1.6556 	    5.3160 	    4.0000 	   39.0000 	   59.2626
    1.8692 	    5.4390 	    4.0000 	   39.0000 	   59.3856
    1.6403 	    5.5640 	    4.0000 	   39.0000 	   59.5106
    1.8235 	    5.6870 	    4.0000 	   39.0000 	   59.6336
    1.6251 	    5.8070 	    4.0000 	   39.0000 	   59.7536
    1.5793 	    5.9260 	    4.0000 	   39.0000 	   59.8726
    1.7624 	    6.0460 	    4.0000 	   39.0000 	   59.9926
    1.7319 	    6.1590 	    4.0000 	   40.0000 	    0.1056
    1.9455 	    6.2650 	    4.0000 	   40.0000 	    0.2116
    1.6403 	    6.3800 	    4.0000 	   40.0000 	    0.3266
    1.7014 	    6.5020 	    4.0000 	   40.0000 	    0.4486
    1.8082 	    6.6260 	    4.0000 	   40.0000 	    0.5726
    1.7929 	    6.7470 	    4.0000 	   40.0000 	    0.6936
    1.7624 	    6.8700 	    4.0000 	   40.0000 	    0.8167
    1.8997 	    6.9940 	    4.0000 	   40.0000 	    0.9407
    1.5488 	    7.1120 	    4.0000 	   40.0000 	    1.0587
    1.7929 	    7.2220 	    4.0000 	   40.0000 	    1.1687
    1.8997 	    7.3290 	    4.0000 	   40.0000 	    1.2757
    1.8540 	    7.4440 	    4.0000 	   40.0000 	    1.3907
    1.8387 	    7.5730 	    4.0000 	   40.0000 	    1.5197
    1.6861 	    7.6990 	    4.0000 	   40.0000 	    1.6457
    1.9760 	    7.8220 	    4.0000 	   40.0000 	    1.7687
    1.9455 	    7.9480 	    4.0000 	   40.0000 	    1.8947
    2.0523 	    8.0710 	    4.0000 	   40.0000 	    2.0177
    1.8387 	    8.1870 	    4.0000 	   40.0000 	    2.1337
    2.0218 	    8.2950 	    4.0000 	   40.0000 	    2.2417
    2.1134 	    8.4100 	    4.0000 	   40.0000 	    2.3567
    2.0676 	    8.5370 	    4.0000 	   40.0000 	    2.4837
    1.9303 	    8.6590 	    4.0000 	   40.0000 	    2.6058
    2.0981 	    8.7870 	    4.0000 	   40.0000 	    2.7338
    2.1134 	    8.9110 	    4.0000 	   40.0000 	    2.8578
    2.0981 	    9.0350 	    4.0000 	   40.0000 	    2.9818
    1.9913 	    9.1500 	    4.0000 	   40.0000 	    3.0968
    2.1439 	    9.2600 	    4.0000 	   40.0000 	    3.2068
    2.0371 	    9.3680 	    4.0000 	   40.0000 	    3.3148
    2.1134 	    9.4950 	    4.0000 	   40.0000 	    3.4418
    2.0371 	    9.6190 	    4.0000 	   40.0000 	    3.5658
    2.0981 	    9.7440 	    4.0000 	   40.0000 	    3.6908
    1.9455 	    9.8700 	    4.0000 	   40.0000 	    3.8168
    2.2049 	    9.9930 	    4.0000 	   40.0000 	    3.9398
    1.7166 	   10.1160 	    4.0000 	   40.0000 	    4.0628
    2.1134 	   10.2260 	    4.0000 	   40.0000 	    4.1728
    2.1744 	   10.3370 	    4.0000 	   40.0000 	    4.2839
    2.1592 	   10.4600 	    4.0000 	   40.0000 	    4.4069
    2.2660 	   10.5900 	    4.0000 	   40.0000 	    4.5369
    2.2812 	   10.7140 	    4.0000 	   40.0000 	    4.6609
    2.1744 	   10.8350 	    4.0000 	   40.0000 	    4.7819
    2.1744 	   10.9600 	    4.0000 	   40.0000 	    4.9069
    2.1744 	   11.0850 	    4.0000 	   40.0000 	    5.0319
    2.2812 	   11.1990 	    4.0000 	   40.0000 	    5.1459
    2.0829 	   11.3090 	    4.0000 	   40.0000 	    5.2559
    2.2965 	   11.4270 	    4.0000 	   40.0000 	    5.3739
    2.2660 	   11.5520 	    4.0000 	   40.0000 	    5.4989
    2.0066 	   11.6790 	    4.0000 	   40.0000 	    5.6259
    2.4186 	   11.8060 	    4.0000 	   40.0000 	    5.7529
    2.3880 	   11.9350 	    4.0000 	   40.0000 	    5.8819
    2.3728 	   12.0590 	    4.0000 	   40.0000 	    6.0059
    2.3880 	   12.1780 	    4.0000 	   40.0000 	    6.1250
    2.0981 	   12.2910 	    4.0000 	   40.0000 	    6.2380
    2.5406 	   12.4080 	    4.0000 	   40.0000 	    6.3550
    2.5711 	   12.5400 	    4.0000 	   40.0000 	    6.4870
    2.5559 	   12.6720 	    4.0000 	   40.0000 	    6.6190
    2.4491 	   12.7960 	    4.0000 	   40.0000 	    6.7430
    2.5406 	   12.9250 	    4.0000 	   40.0000 	    6.8720
    2.4186 	   13.0520 	    4.0000 	   40.0000 	    6.9990
    2.5101 	   13.1710 	    4.0000 	   40.0000 	    7.1180
    2.3575 	   13.2880 	    4.0000 	   40.0000 	    7.2350
    2.5406 	   13.3990 	    4.0000 	   40.0000 	    7.3460
    2.4491 	   13.5290 	    4.0000 	   40.0000 	    7.4750
    2.4948 	   13.6600 	    4.0000 	   40.0000 	    7.6060
    2.5254 	   13.8250 	    4.0000 	   40.0000 	    7.7711
    2.6474 	   13.9500 	    4.0000 	   40.0000 	    7.8951
    2.5406 	   14.0740 	    4.0000 	   40.0000 	    8.0201
    2.6932 	   14.1900 	    4.0000 	   40.0000 	    8.1361
    2.6017 	   14.3040 	    4.0000 	   40.0000 	    8.2501
    2.7085 	   14.4190 	    4.0000 	   40.0000 	    8.3651
    2.6474 	   14.5350 	    4.0000 	   40.0000 	    8.4811
    2.6169 	   14.6630 	    4.0000 	   40.0000 	    8.6091
    2.6780 	   14.7870 	    4.0000 	   40.0000 	    8.7331
    2.6780 	   14.9130 	    4.0000 	   40.0000 	    8.8591
    2.6932 	   15.0440 	    4.0000 	   40.0000 	    8.9901
    2.3270 	   15.1670 	    4.0000 	   40.0000 	    9.1131
    2.7543 	   15.2850 	    4.0000 	   40.0000 	    9.2311
    2.7237 	   15.4300 	    4.0000 	   40.0000 	    9.3761
    2.6780 	   15.5610 	    4.0000 	   40.0000 	    9.5071
    2.8305 	   15.6950 	    4.0000 	   40.0000 	    9.6412
    2.7085 	   15.8330 	    4.0000 	   40.0000 	    9.7792
    2.7695 	   15.9610 	    4.0000 	   40.0000 	    9.9072
    2.9831 	   16.0790 	    4.0000 	   40.0000 	   10.0252
    2.8763 	   16.1910 	    4.0000 	   40.0000 	   10.1372
    2.8153 	   16.3040 	    4.0000 	   40.0000 	   10.2502
    2.7848 	   16.4190 	    4.0000 	   40.0000 	   10.3652
    2.9374 	   16.5480 	    4.0000 	   40.0000 	   10.4942
    2.8611 	   16.6810 	    4.0000 	   40.0000 	   10.6272
    2.7237 	   16.8090 	    4.0000 	   40.0000 	   10.7552
    3.0594 	   16.9440 	    4.0000 	   40.0000 	   10.8902
    2.9679 	   17.0790 	    4.0000 	   40.0000 	   11.0252
    2.9679 	   17.1960 	    4.0000 	   40.0000 	   11.1422
    3.0137 	   17.3160 	    4.0000 	   40.0000 	   11.2623
    2.9374 	   17.4340 	    4.0000 	   40.0000 	   11.3803
    2.9679 	   17.5620 	    4.0000 	   40.0000 	   11.5083
    3.1815 	   17.6970 	    4.0000 	   40.0000 	   11.6433
    2.8305 	   17.8320 	    4.0000 	   40.0000 	   11.7783
    3.0442 	   17.9570 	    4.0000 	   40.0000 	   11.9033
    3.0442 	   18.1130 	    4.0000 	   40.0000 	   12.0593
    3.0594 	   18.2280 	    4.0000 	   40.0000 	   12.1743
    3.1968 	   18.3380 	    4.0000 	   40.0000 	   12.2843
    3.2883 	   18.4680 	    4.0000 	   40.0000 	   12.4143
    3.2120 	   18.5990 	    4.0000 	   40.0000 	   12.5453
    3.1968 	   18.7300 	    4.0000 	   40.0000 	   12.6763
    3.2273 	   18.8650 	    4.0000 	   40.0000 	   12.8113
    3.2120 	   19.0010 	    4.0000 	   40.0000 	   12.9473
    3.4867 	   19.1290 	    4.0000 	   40.0000 	   13.0754
    3.2273 	   19.2530 	    4.0000 	   40.0000 	   13.1994
    3.0900 	   19.3680 	    4.0000 	   40.0000 	   13.3144
    3.3799 	   19.4990 	    4.0000 	   40.0000 	   13.4454
    3.3646 	   19.6320 	    4.0000 	   40.0000 	   13.5784
    3.1662 	   19.7660 	    4.0000 	   40.0000 	   13.7124
    3.3646 	   19.8960 	    4.0000 	   40.0000 	   13.8424
    3.3799 	   20.0270 	    4.0000 	   40.0000 	   13.9734
    3.4867 	   20.1580 	    4.0000 	   40.0000 	   14.1044
    3.3036 	   20.2730 	    4.0000 	   40.0000 	   14.2194
    3.4867 	   20.3890 	    4.0000 	   40.0000 	   14.3354
    3.5019 	   20.5050 	    4.0000 	   40.0000 	   14.4514
    3.5325 	   20.6370 	    4.0000 	   40.0000 	   14.5834
    3.5019 	   20.7630 	    4.0000 	   40.0000 	   14.7084
    3.5019 	   20.8950 	    4.0000 	   40.0000 	   14.8415
    3.5325 	   21.0270 	    4.0000 	   40.0000 	   14.9725
    3.5477 	   21.1630 	    4.0000 	   40.0000 	   15.1095
    3.5935 	   21.2860 	    4.0000 	   40.0000 	   15.2325
    3.5325 	   21.4010 	    4.0000 	   40.0000 	   15.3475
    3.5477 	   21.5320 	    4.0000 	   40.0000 	   15.4785
    3.7919 	   21.6660 	    4.0000 	   40.0000 	   15.6125
    3.8376 	   21.7990 	    4.0000 	   40.0000 	   15.7455
    3.7308 	   21.9320 	    4.0000 	   40.0000 	   15.8785
    3.5477 	   22.0650 	    4.0000 	   40.0000 	   16.0115
    3.8071 	   22.1990 	    4.0000 	   40.0000 	   16.1455
    3.8682 	   22.3180 	    4.0000 	   40.0000 	   16.2645
    3.8071 	   22.4470 	    4.0000 	   40.0000 	   16.3935
    3.8529 	   22.5800 	    4.0000 	   40.0000 	   16.5266
    3.9597 	   22.7090 	    4.0000 	   40.0000 	   16.6556
    3.9750 	   22.8410 	    4.0000 	   40.0000 	   16.7876
    3.9902 	   22.9720 	    4.0000 	   40.0000 	   16.9186
    3.7003 	   23.1040 	    4.0000 	   40.0000 	   17.0506
    3.9902 	   23.2290 	    4.0000 	   40.0000 	   17.1756
    3.9292 	   23.3480 	    4.0000 	   40.0000 	   17.2946
    4.0360 	   23.4770 	    4.0000 	   40.0000 	   17.4236
    4.0665 	   23.6130 	    4.0000 	   40.0000 	   17.5596
    4.1428 	   23.7430 	    4.0000 	   40.0000 	   17.6896
    4.1276 	   23.8780 	    4.0000 	   40.0000 	   17.8246
    4.2496 	   24.0120 	    4.0000 	   40.0000 	   17.9586
    4.1886 	   24.1480 	    4.0000 	   40.0000 	   18.0946
    4.1276 	   24.2690 	    4.0000 	   40.0000 	   18.2156
    4.0360 	   24.3820 	    4.0000 	   40.0000 	   18.3287
    4.3412 	   24.4990 	    4.0000 	   40.0000 	   18.4457
    4.0055 	   24.6360 	    4.0000 	   40.0000 	   18.5827
    4.4327 	   24.7630 	    4.0000 	   40.0000 	   18.7097
    4.4480 	   24.8970 	    4.0000 	   40.0000 	   18.8437
    4.3565 	   25.0290 	    4.0000 	   40.0000 	   18.9757
    4.4938 	   25.1640 	    4.0000 	   40.0000 	   19.1107
    4.5396 	   25.2850 	    4.0000 	   40.0000 	   19.2317
    4.3259 	   25.4100 	    4.0000 	   40.0000 	   19.3567
    4.1123 	   25.5420 	    4.0000 	   40.0000 	   19.4887
    4.0055 	   25.6840 	    4.0000 	   40.0000 	   19.6307
    3.8071 	   25.8230 	    4.0000 	   40.0000 	   19.7697
    3.8529 	   25.9490 	    4.0000 	   40.0000 	   19.8957
    3.7003 	   26.0830 	    4.0000 	   40.0000 	   20.0298
    3.6698 	   26.2140 	    4.0000 	   40.0000 	   20.1608
    3.4562 	   26.3370 	    4.0000 	   40.0000 	   20.2838
    3.6088 	   26.4500 	    4.0000 	   40.0000 	   20.3968
    3.4104 	   26.5840 	    4.0000 	   40.0000 	   20.5308
    3.3494 	   26.7020 	    4.0000 	   40.0000 	   20.6488
    3.3036 	   26.8280 	    4.0000 	   40.0000 	   20.7748
    3.3188 	   26.9600 	    4.0000 	   40.0000 	   20.9068
    3.0900 	   27.0980 	    4.0000 	   40.0000 	   21.0448
    2.9374 	   27.2260 	    4.0000 	   40.0000 	   21.1728
    3.1357 	   27.3460 	    4.0000 	   40.0000 	   21.2928
    3.0594 	   27.4720 	    4.0000 	   40.0000 	   21.4188
    3.1815 	   27.6130 	    4.0000 	   40.0000 	   21.5598
    2.9221 	   27.7490 	    4.0000 	   40.0000 	   21.6958
    2.9679 	   27.8810 	    4.0000 	   40.0000 	   21.8279
    2.8611 	   28.0150 	    4.0000 	   40.0000 	   21.9619
    2.9526 	   28.1500 	    4.0000 	   40.0000 	   22.0969
    2.7695 	   28.2730 	    4.0000 	   40.0000 	   22.2199
    2.8763 	   28.3920 	    4.0000 	   40.0000 	   22.3389
    2.8000 	   28.5170 	    4.0000 	   40.0000 	   22.4639
    2.8153 	   28.6530 	    4.0000 	   40.0000 	   22.5999
    2.6169 	   28.7870 	    4.0000 	   40.0000 	   22.7339
    2.6322 	   28.9190 	    4.0000 	   40.0000 	   22.8659
    2.7237 	   29.0520 	    4.0000 	   40.0000 	   22.9989
    2.5711 	   29.1820 	    4.0000 	   40.0000 	   23.1289
    2.5559 	   29.3080 	    4.0000 	   40.0000 	   23.2549
    2.5254 	   29.4320 	    4.0000 	   40.0000 	   23.3789
    2.4491 	   29.5650 	    4.0000 	   40.0000 	   23.5120
    2.3117 	   29.6900 	    4.0000 	   40.0000 	   23.6370
    2.3423 	   29.8110 	    4.0000 	   40.0000 	   23.7580
    2.4033 	   29.9340 	    4.0000 	   40.0000 	   23.8810
    2.5406 	   30.0550 	    4.0000 	   40.0000 	   24.0020
    2.4948 	   30.1820 	    4.0000 	   40.0000 	   24.1290
    2.3117 	   30.3040 	    4.0000 	   40.0000 	   24.2510
    2.2354 	   30.4240 	    4.0000 	   40.0000 	   24.3710
    2.2965 	   30.5550 	    4.0000 	   40.0000 	   24.5020
    2.2660 	   30.6900 	    4.0000 	   40.0000 	   24.6370
    2.2049 	   30.8220 	    4.0000 	   40.0000 	   24.7690
    2.2049 	   30.9610 	    4.0000 	   40.0000 	   24.9070
    2.2049 	   31.1000 	    4.0000 	   40.0000 	   25.0460
    2.2354 	   31.2280 	    4.0000 	   40.0000 	   25.1740
    2.1439 	   31.3470 	    4.0000 	   40.0000 	   25.2931
    2.1286 	   31.4650 	    4.0000 	   40.0000 	   25.4111
    2.2812 	   31.6010 	    4.0000 	   40.0000 	   25.5471
    2.0829 	   31.7350 	    4.0000 	   40.0000 	   25.6811
    2.1592 	   31.8680 	    4.0000 	   40.0000 	   25.8141
    1.8540 	   32.0000 	    4.0000 	   40.0000 	   25.9461
    2.1134 	   32.1430 	    4.0000 	   40.0000 	   26.0891
    2.1134 	   32.2690 	    4.0000 	   40.0000 	   26.2151
    2.0218 	   32.3880 	    4.0000 	   40.0000 	   26.3341
    1.8235 	   32.5140 	    4.0000 	   40.0000 	   26.4601
    1.9608 	   32.6490 	    4.0000 	   40.0000 	   26.5951
    1.9608 	   32.7840 	    4.0000 	   40.0000 	   26.7301
    1.9303 	   32.9170 	    4.0000 	   40.0000 	   26.8631
    1.9760 	   33.0510 	    4.0000 	   40.0000 	   26.9972
    1.8235 	   33.1750 	    4.0000 	   40.0000 	   27.1212
    1.9150 	   33.2980 	    4.0000 	   40.0000 	   27.2442
    1.8692 	   33.4200 	    4.0000 	   40.0000 	   27.3662
    1.8540 	   33.5530 	    4.0000 	   40.0000 	   27.4992
    1.6861 	   33.6920 	    4.0000 	   40.0000 	   27.6382
    1.8387 	   33.8300 	    4.0000 	   40.0000 	   27.7762
    2.0066 	   33.9670 	    4.0000 	   40.0000 	   27.9132
    1.8845 	   34.1100 	    4.0000 	   40.0000 	   28.0562
    1.7472 	   34.2430 	    4.0000 	   40.0000 	   28.1892
    1.8540 	   34.3670 	    4.0000 	   40.0000 	   28.3132
    1.8845 	   34.4950 	    4.0000 	   40.0000 	   28.4412
    1.6403 	   34.6290 	    4.0000 	   40.0000 	   28.5752
    1.8387 	   34.7680 	    4.0000 	   40.0000 	   28.7142
    1.7624 	   34.9050 	    4.0000 	   40.0000 	   28.8513
    1.7472 	   35.0380 	    4.0000 	   40.0000 	   28.9843
    1.8082 	   35.1830 	    4.0000 	   40.0000 	   29.1293
    1.4115 	   35.3140 	    4.0000 	   40.0000 	   29.2603
    1.6709 	   35.4340 	    4.0000 	   40.0000 	   29.3803
    1.5793 	   35.5690 	    4.0000 	   40.0000 	   29.5153
    1.6556 	   35.7060 	    4.0000 	   40.0000 	   29.6523
    1.5946 	   35.8500 	    4.0000 	   40.0000 	   29.7963
    1.6861 	   35.9910 	    4.0000 	   40.0000 	   29.9373
    1.6403 	   36.1380 	    4.0000 	   40.0000 	   30.0843
    1.6098 	   36.2690 	    4.0000 	   40.0000 	   30.2143
    1.7014 	   36.3950 	    4.0000 	   40.0000 	   30.3413
    1.6556 	   36.5310 	    4.0000 	   40.0000 	   30.4773
    1.6556 	   36.6640 	    4.0000 	   40.0000 	   30.6104
    1.5335 	   36.8010 	    4.0000 	   40.0000 	   30.7474
    1.5488 	   36.9390 	    4.0000 	   40.0000 	   30.8854
    1.4878 	   37.0770 	    4.0000 	   40.0000 	   31.0234
    1.5488 	   37.2140 	    4.0000 	   40.0000 	   31.1604
    1.4878 	   37.3480 	    4.0000 	   40.0000 	   31.2944
    1.3657 	   37.4720 	    4.0000 	   40.0000 	   31.4184
    1.3962 	   37.6130 	    4.0000 	   40.0000 	   31.5594
    1.3199 	   37.7540 	    4.0000 	   40.0000 	   31.7004
    1.4420 	   37.8930 	    4.0000 	   40.0000 	   31.8394
    1.4572 	   38.0380 	    4.0000 	   40.0000 	   31.9844
    1.3504 	   38.1810 	    4.0000 	   40.0000 	   32.1274
    1.3657 	   38.3110 	    4.0000 	   40.0000 	   32.2575
    1.3504 	   38.4330 	    4.0000 	   40.0000 	   32.3795
    1.5183 	   38.5640 	    4.0000 	   40.0000 	   32.5105
    1.3352 	   38.7060 	    4.0000 	   40.0000 	   32.6525
    1.5183 	   38.8460 	    4.0000 	   40.0000 	   32.7925
    1.3809 	   38.9830 	    4.0000 	   40.0000 	   32.9295
    1.4267 	   39.1280 	    4.0000 	   40.0000 	   33.0745
    1.4878 	   39.2610 	    4.0000 	   40.0000 	   33.2075
    1.4420 	   39.3900 	    4.0000 	   40.0000 	   33.3365
    1.3504 	   39.5210 	    4.0000 	   40.0000 	   33.4675
    1.3046 	   39.6630 	    4.0000 	   40.0000 	   33.6095
    1.3809 	   39.8000 	    4.0000 	   40.0000 	   33.7465
    1.2589 	   39.9340 	    4.0000 	   40.0000 	   33.8805
    1.2436 	   40.0760 	    4.0000 	   40.0000 	   34.0226
    1.2589 	   40.2120 	    4.0000 	   40.0000 	   34.1586
    1.2894 	   40.3400 	    4.0000 	   40.0000 	   34.2866
    1.2894 	   40.4640 	    4.0000 	   40.0000 	   34.4106
    1.3199 	   40.5960 	    4.0000 	   40.0000 	   34.5426
    1.1826 	   40.7360 	    4.0000 	   40.0000 	   34.6826
    1.2741 	   40.8750 	    4.0000 	   40.0000 	   34.8216
    1.1063 	   41.0190 	    4.0000 	   40.0000 	   34.9656
    1.4725 	   41.1650 	    4.0000 	   40.0000 	   35.1116
    1.1673 	   41.3030 	    4.0000 	   40.0000 	   35.2496
    1.1826 	   41.4310 	    4.0000 	   40.0000 	   35.3776
    1.2284 	   41.5690 	    4.0000 	   40.0000 	   35.5156
    1.1063 	   41.7110 	    4.0000 	   40.0000 	   35.6576
    1.2436 	   41.8510 	    4.0000 	   40.0000 	   35.7977
    1.2589 	   41.9920 	    4.0000 	   40.0000 	   35.9387
    1.2589 	   42.1350 	    4.0000 	   40.0000 	   36.0817
    1.2436 	   42.2690 	    4.0000 	   40.0000 	   36.2157
    1.0758 	   42.4050 	    4.0000 	   40.0000 	   36.3517
    1.0605 	   42.5340 	    4.0000 	   40.0000 	   36.4807
    1.2436 	   42.6770 	    4.0000 	   40.0000 	   36.6237
    1.1521 	   42.8180 	    4.0000 	   40.0000 	   36.7647
    1.1368 	   42.9630 	    4.0000 	   40.0000 	   36.9097
    1.1521 	   43.1090 	    4.0000 	   40.0000 	   37.0557
    1.1215 	   43.2490 	    4.0000 	   40.0000 	   37.1957
    1.1368 	   43.3830 	    4.0000 	   40.0000 	   37.3297
    1.1063 	   43.5170 	    4.0000 	   40.0000 	   37.4637
    1.1368 	   43.6600 	    4.0000 	   40.0000 	   37.6068
    1.1215 	   43.8030 	    4.0000 	   40.0000 	   37.7498
    1.0605 	   43.9440 	    4.0000 	   40.0000 	   37.8908
    1.1673 	   44.0880 	    4.0000 	   40.0000 	   38.0348
    1.0758 	   44.2330 	    4.0000 	   40.0000 	   38.1798
    0.9689 	   44.3640 	    4.0000 	   40.0000 	   38.3108
    1.1215 	   44.4950 	    4.0000 	   40.0000 	   38.4418
    0.7553 	   44.6350 	    4.0000 	   40.0000 	   38.5818
    1.0300 	   44.7830 	    4.0000 	   40.0000 	   38.7298
    1.0452 	   44.9260 	    4.0000 	   40.0000 	   38.8728
    1.0910 	   45.0740 	    4.0000 	   40.0000 	   39.0208
    1.0758 	   45.2180 	    4.0000 	   40.0000 	   39.1648
    0.9842 	   45.3490 	    4.0000 	   40.0000 	   39.2959
    0.9689 	   45.4790 	    4.0000 	   40.0000 	   39.4259
    0.9689 	   45.6180 	    4.0000 	   40.0000 	   39.5649
    1.1063 	   45.7520 	    4.0000 	   40.0000 	   39.6989
    0.7401 	   45.8950 	    4.0000 	   40.0000 	   39.8419
    1.1063 	   46.0370 	    4.0000 	   40.0000 	   39.9839
    1.0300 	   46.1870 	    4.0000 	   40.0000 	   40.1339
    0.9537 	   46.3210 	    4.0000 	   40.0000 	   40.2679
    1.0452 	   46.4500 	    4.0000 	   40.0000 	   40.3969
    1.0300 	   46.5870 	    4.0000 	   40.0000 	   40.5339
    0.9232 	   46.7320 	    4.0000 	   40.0000 	   40.6789
    1.0910 	   46.8770 	    4.0000 	   40.0000 	   40.8239
    0.9537 	   47.0240 	    4.0000 	   40.0000 	   40.9710
    0.9842 	   47.1700 	    4.0000 	   40.0000 	   41.1170
    1.1063 	   47.3070 	    4.0000 	   40.0000 	   41.2540
    1.0300 	   47.4410 	    4.0000 	   40.0000 	   41.3880
    1.0758 	   47.5690 	    4.0000 	   40.0000 	   41.5160
    0.9384 	   47.7090 	    4.0000 	   40.0000 	   41.6560
    0.8164 	   47.8560 	    4.0000 	   40.0000 	   41.8030
    0.9537 	   48.0010 	    4.0000 	   40.0000 	   41.9480
    0.8774 	   48.1500 	    4.0000 	   40.0000 	   42.0970
    0.8164 	   48.2900 	    4.0000 	   40.0000 	   42.2370
    0.9232 	   48.4250 	    4.0000 	   40.0000 	   42.3710
    0.8469 	   48.5550 	    4.0000 	   40.0000 	   42.5010
    0.8927 	   48.7010 	    4.0000 	   40.0000 	   42.6470
    0.9384 	   48.8450 	    4.0000 	   40.0000 	   42.7911
    1.0300 	   48.9910 	    4.0000 	   40.0000 	   42.9371
    1.0300 	   49.1390 	    4.0000 	   40.0000 	   43.0851
    0.8164 	   49.2790 	    4.0000 	   40.0000 	   43.2251
    0.9537 	   49.4120 	    4.0000 	   40.0000 	   43.3581
    0.8011 	   49.5410 	    4.0000 	   40.0000 	   43.4871
    0.9384 	   49.6890 	    4.0000 	   40.0000 	   43.6351
    0.9079 	   49.8320 	    4.0000 	   40.0000 	   43.7781
    0.9079 	   49.9780 	    4.0000 	   40.0000 	   43.9241
    0.8469 	   50.1270 	    4.0000 	   40.0000 	   44.0731
    0.9079 	   50.2680 	    4.0000 	   40.0000 	   44.2141
    0.6332 	   50.4030 	    4.0000 	   40.0000 	   44.3491
    0.7553 	   50.5340 	    4.0000 	   40.0000 	   44.4801
    0.8774 	   50.6830 	    4.0000 	   40.0000 	   44.6292
    0.8927 	   50.8270 	    4.0000 	   40.0000 	   44.7732
    0.7553 	   50.9660 	    4.0000 	   40.0000 	   44.9122
    0.7553 	   51.1090 	    4.0000 	   40.0000 	   45.0552
    0.8927 	   51.2430 	    4.0000 	   40.0000 	   45.1892
    0.8469 	   51.3770 	    4.0000 	   40.0000 	   45.3232
    1.1368 	   51.5070 	    4.0000 	   40.0000 	   45.4532
    1.0300 	   51.6480 	    4.0000 	   40.0000 	   45.5942
    0.6180 	   51.7960 	    4.0000 	   40.0000 	   45.7422
    0.7553 	   51.9400 	    4.0000 	   40.0000 	   45.8862
    0.6638 	   52.0920 	    4.0000 	   40.0000 	   46.0382
    0.7095 	   52.2430 	    4.0000 	   40.0000 	   46.1892
    0.7858 	   52.3780 	    4.0000 	   40.0000 	   46.3243
    1.0452 	   52.5080 	    4.0000 	   40.0000 	   46.4543
    0.9995 	   52.6500 	    4.0000 	   40.0000 	   46.5963
    0.9384 	   52.7990 	    4.0000 	   40.0000 	   46.7453
    0.9995 	   52.9360 	    4.0000 	   40.0000 	   46.8823
    1.1368 	   53.0760 	    4.0000 	   40.0000 	   47.0223
    1.1368 	   53.2150 	    4.0000 	   40.0000 	   47.1613
    0.9842 	   53.3450 	    4.0000 	   40.0000 	   47.2913
    1.1368 	   53.4780 	    4.0000 	   40.0000 	   47.4243
    1.0758 	   53.6090 	    4.0000 	   40.0000 	   47.5553
    1.0300 	   53.7580 	    4.0000 	   40.0000 	   47.7043
    1.1215 	   53.9070 	    4.0000 	   40.0000 	   47.8533
    1.2284 	   54.0550 	    4.0000 	   40.0000 	   48.0014
    1.1215 	   54.2040 	    4.0000 	   40.0000 	   48.1504
    1.0758 	   54.3470 	    4.0000 	   40.0000 	   48.2934
    1.0758 	   54.4790 	    4.0000 	   40.0000 	   48.4254
    1.1978 	   54.6100 	    4.0000 	   40.0000 	   48.5564
    1.1368 	   54.7550 	    4.0000 	   40.0000 	   48.7014
    1.2741 	   54.9020 	    4.0000 	   40.0000 	   48.8484
    1.3352 	   55.0520 	    4.0000 	   40.0000 	   48.9984
    1.2131 	   55.2020 	    4.0000 	   40.0000 	   49.1484
    1.4725 	   55.3450 	    4.0000 	   40.0000 	   49.2914
    1.1978 	   55.4780 	    4.0000 	   40.0000 	   49.4244
    1.2284 	   55.6100 	    4.0000 	   40.0000 	   49.5564
    1.2741 	   55.7570 	    4.0000 	   40.0000 	   49.7034
    1.1673 	   55.8980 	    4.0000 	   40.0000 	   49.8445
    1.2741 	   56.0460 	    4.0000 	   40.0000 	   49.9925
    1.1826 	   56.2000 	    4.0000 	   40.0000 	   50.1465
    1.2589 	   56.3450 	    4.0000 	   40.0000 	   50.2915
    1.3199 	   56.4770 	    4.0000 	   40.0000 	   50.4235
    1.3352 	   56.6170 	    4.0000 	   40.0000 	   50.5625
    1.5030 	   56.7590 	    4.0000 	   40.0000 	   50.7055
    1.1826 	   56.9010 	    4.0000 	   40.0000 	   50.8475
    1.2741 	   57.0480 	    4.0000 	   40.0000 	   50.9945
    1.3504 	   57.2000 	    4.0000 	   40.0000 	   51.1465
    1.3504 	   57.3340 	    4.0000 	   40.0000 	   51.2805
    1.3046 	   57.4680 	    4.0000 	   40.0000 	   51.4145
    1.4878 	   57.6010 	    4.0000 	   40.0000 	   51.5476
    1.3199 	   57.7410 	    4.0000 	   40.0000 	   51.6876
    1.1215 	   57.8840 	    4.0000 	   40.0000 	   51.8306
    1.5793 	   58.0300 	    4.0000 	   40.0000 	   51.9766
    1.4267 	   58.1820 	    4.0000 	   40.0000 	   52.1286
    1.6556 	   58.3190 	    4.0000 	   40.0000 	   52.2656
    1.5335 	   58.4530 	    4.0000 	   40.0000 	   52.3996
    1.6556 	   58.5860 	    4.0000 	   40.0000 	   52.5326
    1.6098 	   58.7280 	    4.0000 	   40.0000 	   52.6746
    1.6403 	   58.8780 	    4.0000 	   40.0000 	   52.8246
    1.6251 	   59.0250 	    4.0000 	   40.0000 	   52.9716
    1.3504 	   59.1730 	    4.0000 	   40.0000 	   53.1196
    1.5335 	   59.3210 	    4.0000 	   40.0000 	   53.2667
    1.6251 	   59.4650 	    4.0000 	   40.0000 	   53.4117
    1.6251 	   59.5960 	    4.0000 	   40.0000 	   53.5427
    1.5793 	   59.7300 	    4.0000 	   40.0000 	   53.6767
    1.6709 	   59.8740 	    4.0000 	   40.0000 	   53.8207
    1.5946 	   60.0210 	    4.0000 	   40.0000 	   53.9677
    1.6251 	   60.1720 	    4.0000 	   40.0000 	   54.1187
    1.6709 	   60.3160 	    4.0000 	   40.0000 	   54.2627
    1.6556 	   60.4540 	    4.0000 	   40.0000 	   54.4007
    1.6403 	   60.5870 	    4.0000 	   40.0000 	   54.5337
    1.8082 	   60.7220 	    4.0000 	   40.0000 	   54.6687
    1.7777 	   60.8670 	    4.0000 	   40.0000 	   54.8137
    1.6098 	   61.0130 	    4.0000 	   40.0000 	   54.9598
    1.5640 	   61.1620 	    4.0000 	   40.0000 	   55.1088
    1.8235 	   61.3100 	    4.0000 	   40.0000 	   55.2568
    1.8540 	   61.4470 	    4.0000 	   40.0000 	   55.3938
    1.5946 	   61.5810 	    4.0000 	   40.0000 	   55.5278
    1.8845 	   61.7310 	    4.0000 	   40.0000 	   55.6778
    1.8387 	   61.8840 	    4.0000 	   40.0000 	   55.8308
    1.8845 	   62.0340 	    4.0000 	   40.0000 	   55.9808
    1.8540 	   62.1740 	    4.0000 	   40.0000 	   56.1208
    1.9303 	   62.3230 	    4.0000 	   40.0000 	   56.2698
    1.8540 	   62.4610 	    4.0000 	   40.0000 	   56.4078
    1.7929 	   62.5970 	    4.0000 	   40.0000 	   56.5438
    1.8387 	   62.7340 	    4.0000 	   40.0000 	   56.6808
    1.9150 	   62.8710 	    4.0000 	   40.0000 	   56.8179
    2.0066 	   63.0080 	    4.0000 	   40.0000 	   56.9549
    1.9913 	   63.1570 	    4.0000 	   40.0000 	   57.1039
    1.9303 	   63.3070 	    4.0000 	   40.0000 	   57.2539
    2.0523 	   63.4500 	    4.0000 	   40.0000 	   57.3969
    1.9760 	   63.5860 	    4.0000 	   40.0000 	   57.5329
    1.7319 	   63.7250 	    4.0000 	   40.0000 	   57.6719
    2.0676 	   63.8670 	    4.0000 	   40.0000 	   57.8139
    2.1134 	   64.0030 	    4.0000 	   40.0000 	   57.9499
    2.1744 	   64.1540 	    4.0000 	   40.0000 	   58.1009
    2.0218 	   64.3090 	    4.0000 	   40.0000 	   58.2559
    2.1439 	   64.4560 	    4.0000 	   40.0000 	   58.4029
    1.8997 	   64.5950 	    4.0000 	   40.0000 	   58.5420
    2.0371 	   64.7350 	    4.0000 	   40.0000 	   58.6820
    2.2354 	   64.8730 	    4.0000 	   40.0000 	   58.8200
    2.1286 	   65.0240 	    4.0000 	   40.0000 	   58.9710
    2.1592 	   65.1740 	    4.0000 	   40.0000 	   59.1210
    2.3270 	   65.3260 	    4.0000 	   40.0000 	   59.2730
    2.1897 	   65.4700 	    4.0000 	   40.0000 	   59.4170
    2.2660 	   65.6080 	    4.0000 	   40.0000 	   59.5550
    2.1286 	   65.7590 	    4.0000 	   40.0000 	   59.7060
    2.2507 	   65.9130 	    4.0000 	   40.0000 	   59.8590
    2.3575 	   66.0650 	    4.0000 	   41.0000 	    0.0100
    2.3880 	   66.2230 	    4.0000 	   41.0000 	    0.1690
    2.3270 	   66.3770 	    4.0000 	   41.0000 	    0.3231
    2.2812 	   66.5200 	    4.0000 	   41.0000 	    0.4661
    2.3880 	   66.6590 	    4.0000 	   41.0000 	    0.6051
    2.5254 	   66.7990 	    4.0000 	   41.0000 	    0.7451
    2.3270 	   66.9410 	    4.0000 	   41.0000 	    0.8871
    2.3423 	   67.0930 	    4.0000 	   41.0000 	    1.0391
    2.4643 	   67.2350 	    4.0000 	   41.0000 	    1.1811
    2.6169 	   67.3800 	    4.0000 	   41.0000 	    1.3261
    2.3880 	   67.5220 	    4.0000 	   41.0000 	    1.4681
    2.5711 	   67.6610 	    4.0000 	   41.0000 	    1.6071
    2.6017 	   67.8120 	    4.0000 	   41.0000 	    1.7581
    2.4643 	   67.9630 	    4.0000 	   41.0000 	    1.9091
    2.6017 	   68.1220 	    4.0000 	   41.0000 	    2.0682
    2.6322 	   68.2700 	    4.0000 	   41.0000 	    2.2162
    2.6017 	   68.4090 	    4.0000 	   41.0000 	    2.3552
    2.5559 	   68.5510 	    4.0000 	   41.0000 	    2.4972
    2.5711 	   68.6980 	    4.0000 	   41.0000 	    2.6442
    2.7085 	   68.8560 	    4.0000 	   41.0000 	    2.8022
    2.6169 	   69.0130 	    4.0000 	   41.0000 	    2.9592
    2.7695 	   69.1690 	    4.0000 	   41.0000 	    3.1152
    2.6780 	   69.3220 	    4.0000 	   41.0000 	    3.2682
    2.7695 	   69.4680 	    4.0000 	   41.0000 	    3.4142
    2.5864 	   69.6060 	    4.0000 	   41.0000 	    3.5522
    2.7695 	   69.7440 	    4.0000 	   41.0000 	    3.6902
    2.8611 	   69.8900 	    4.0000 	   41.0000 	    3.8363
    2.9679 	   70.0490 	    4.0000 	   41.0000 	    3.9953
    2.7848 	   70.1960 	    4.0000 	   41.0000 	    4.1423
    2.8611 	   70.3380 	    4.0000 	   41.0000 	    4.2843
    2.8000 	   70.4800 	    4.0000 	   41.0000 	    4.4263
    3.0594 	   70.6230 	    4.0000 	   41.0000 	    4.5693
    2.8763 	   70.7630 	    4.0000 	   41.0000 	    4.7093
    2.9068 	   70.9130 	    4.0000 	   41.0000 	    4.8593
    3.0137 	   71.0580 	    4.0000 	   41.0000 	    5.0043
    3.0900 	   71.2020 	    4.0000 	   41.0000 	    5.1483
    3.0594 	   71.3440 	    4.0000 	   41.0000 	    5.2903
    3.0900 	   71.4860 	    4.0000 	   41.0000 	    5.4323
    3.1357 	   71.6290 	    4.0000 	   41.0000 	    5.5754
    3.1052 	   71.7680 	    4.0000 	   41.0000 	    5.7144
    3.1052 	   71.9230 	    4.0000 	   41.0000 	    5.8694
    3.1510 	   72.0820 	    4.0000 	   41.0000 	    6.0284
    3.3494 	   72.2400 	    4.0000 	   41.0000 	    6.1864
    3.1205 	   72.4000 	    4.0000 	   41.0000 	    6.3464
    3.3188 	   72.5490 	    4.0000 	   41.0000 	    6.4954
    3.1510 	   72.6900 	    4.0000 	   41.0000 	    6.6364
    3.2731 	   72.8390 	    4.0000 	   41.0000 	    6.7854
    3.3951 	   72.9980 	    4.0000 	   41.0000 	    6.9444
    3.3646 	   73.1560 	    4.0000 	   41.0000 	    7.1024
    3.3646 	   73.3040 	    4.0000 	   41.0000 	    7.2505
    3.5325 	   73.4510 	    4.0000 	   41.0000 	    7.3975
    3.6088 	   73.6000 	    4.0000 	   41.0000 	    7.5465
    3.4562 	   73.7440 	    4.0000 	   41.0000 	    7.6905
    3.4257 	   73.8950 	    4.0000 	   41.0000 	    7.8415
    3.5477 	   74.0390 	    4.0000 	   41.0000 	    7.9855
    3.6240 	   74.1910 	    4.0000 	   41.0000 	    8.1375
    3.7156 	   74.3400 	    4.0000 	   41.0000 	    8.2865
    3.6240 	   74.4860 	    4.0000 	   41.0000 	    8.4325
    3.5477 	   74.6360 	    4.0000 	   41.0000 	    8.5825
    3.6088 	   74.7780 	    4.0000 	   41.0000 	    8.7245
    3.7613 	   74.9230 	    4.0000 	   41.0000 	    8.8695
    3.7766 	   75.0790 	    4.0000 	   41.0000 	    9.0256
    3.6698 	   75.2380 	    4.0000 	   41.0000 	    9.1846
    3.8987 	   75.3920 	    4.0000 	   41.0000 	    9.3386
    3.8682 	   75.5460 	    4.0000 	   41.0000 	    9.4926
    3.8224 	   75.6930 	    4.0000 	   41.0000 	    9.6396
    3.9750 	   75.8460 	    4.0000 	   41.0000 	    9.7926
    3.8834 	   76.0030 	    4.0000 	   41.0000 	    9.9496
    3.9597 	   76.1600 	    4.0000 	   41.0000 	   10.1066
    4.0055 	   76.3140 	    4.0000 	   41.0000 	   10.2606
    4.0360 	   76.4660 	    4.0000 	   41.0000 	   10.4126
    4.1428 	   76.6120 	    4.0000 	   41.0000 	   10.5586
    4.0818 	   76.7550 	    4.0000 	   41.0000 	   10.7017
    4.0208 	   76.9150 	    4.0000 	   41.0000 	   10.8617
    4.1581 	   77.0730 	    4.0000 	   41.0000 	   11.0197
    4.1123 	   77.2290 	    4.0000 	   41.0000 	   11.1757
    4.2344 	   77.3740 	    4.0000 	   41.0000 	   11.3207
    4.2344 	   77.5200 	    4.0000 	   41.0000 	   11.4667
    4.2649 	   77.6630 	    4.0000 	   41.0000 	   11.6097
    4.2649 	   77.8070 	    4.0000 	   41.0000 	   11.7537
    4.2802 	   77.9660 	    4.0000 	   41.0000 	   11.9127
    3.9750 	   78.1310 	    4.0000 	   41.0000 	   12.0777
    3.9292 	   78.2910 	    4.0000 	   41.0000 	   12.2377
    3.7003 	   78.4560 	    4.0000 	   41.0000 	   12.4027
    3.7003 	   78.6050 	    4.0000 	   41.0000 	   12.5518
    3.6393 	   78.7510 	    4.0000 	   41.0000 	   12.6978
    3.4714 	   78.9030 	    4.0000 	   41.0000 	   12.8498
    3.5477 	   79.0650 	    4.0000 	   41.0000 	   13.0118
    3.4257 	   79.2220 	    4.0000 	   41.0000 	   13.1688
    3.4409 	   79.3720 	    4.0000 	   41.0000 	   13.3188
    3.3646 	   79.5320 	    4.0000 	   41.0000 	   13.4788
    3.1205 	   79.6810 	    4.0000 	   41.0000 	   13.6278
    3.0289 	   79.8280 	    4.0000 	   41.0000 	   13.7748
    3.1205 	   79.9750 	    4.0000 	   41.0000 	   13.9218
    3.0900 	   80.1250 	    4.0000 	   41.0000 	   14.0718
    3.0594 	   80.2850 	    4.0000 	   41.0000 	   14.2319
    2.9526 	   80.4490 	    4.0000 	   41.0000 	   14.3959
    2.7085 	   80.5990 	    4.0000 	   41.0000 	   14.5459
    2.8305 	   80.7460 	    4.0000 	   41.0000 	   14.6929
    2.7237 	   80.8970 	    4.0000 	   41.0000 	   14.8439
    2.6169 	   81.0550 	    4.0000 	   41.0000 	   15.0019
    2.5711 	   81.2030 	    4.0000 	   41.0000 	   15.1499
    2.7390 	   81.3500 	    4.0000 	   41.0000 	   15.2969
    2.5254 	   81.5040 	    4.0000 	   41.0000 	   15.4509
    2.6017 	   81.6590 	    4.0000 	   41.0000 	   15.6059
    2.5406 	   81.8010 	    4.0000 	   41.0000 	   15.7479
    2.4796 	   81.9510 	    4.0000 	   41.0000 	   15.8979
    2.4643 	   82.1160 	    4.0000 	   41.0000 	   16.0630
    2.4948 	   82.2770 	    4.0000 	   41.0000 	   16.2240
    2.4643 	   82.4360 	    4.0000 	   41.0000 	   16.3830
    2.3880 	   82.5870 	    4.0000 	   41.0000 	   16.5340
    2.5254 	   82.7400 	    4.0000 	   41.0000 	   16.6870
    2.4643 	   82.8960 	    4.0000 	   41.0000 	   16.8430
    2.4491 	   83.0520 	    4.0000 	   41.0000 	   16.9990
    2.2812 	   83.2010 	    4.0000 	   41.0000 	   17.1480
    2.3270 	   83.3500 	    4.0000 	   41.0000 	   17.2970
    2.3117 	   83.4990 	    4.0000 	   41.0000 	   17.4450
    2.2812 	   83.6480 	    4.0000 	   41.0000 	   17.5940
    2.1134 	   83.7950 	    4.0000 	   41.0000 	   17.7411
    2.2202 	   83.9500 	    4.0000 	   41.0000 	   17.8961
    2.2049 	   84.1190 	    4.0000 	   41.0000 	   18.0651
    2.2354 	   84.2840 	    4.0000 	   41.0000 	   18.2301
    1.9455 	   84.4460 	    4.0000 	   41.0000 	   18.3921
    1.7472 	   84.6010 	    4.0000 	   41.0000 	   18.5471
    2.0066 	   84.7470 	    4.0000 	   41.0000 	   18.6931
    1.9760 	   84.9070 	    4.0000 	   41.0000 	   18.8531
    1.8692 	   85.0660 	    4.0000 	   41.0000 	   19.0121
    1.8540 	   85.2330 	    4.0000 	   41.0000 	   19.1791
    1.7777 	   85.3870 	    4.0000 	   41.0000 	   19.3331
    1.9150 	   85.5360 	    4.0000 	   41.0000 	   19.4822
    1.9608 	   85.6880 	    4.0000 	   41.0000 	   19.6342
    1.9760 	   85.8400 	    4.0000 	   41.0000 	   19.7862
    1.7624 	   86.0060 	    4.0000 	   41.0000 	   19.9522
    1.9455 	   86.1560 	    4.0000 	   41.0000 	   20.1022
    1.8692 	   86.3160 	    4.0000 	   41.0000 	   20.2622
    1.7166 	   86.4680 	    4.0000 	   41.0000 	   20.4142
    1.8997 	   86.6250 	    4.0000 	   41.0000 	   20.5712
    1.6861 	   86.7750 	    4.0000 	   41.0000 	   20.7212
    1.6403 	   86.9230 	    4.0000 	   41.0000 	   20.8692
    1.5640 	   87.0780 	    4.0000 	   41.0000 	   21.0242
    1.8540 	   87.2420 	    4.0000 	   41.0000 	   21.1882
    1.6861 	   87.4090 	    4.0000 	   41.0000 	   21.3553
    1.3657 	   87.5700 	    4.0000 	   41.0000 	   21.5163
    1.6556 	   87.7220 	    4.0000 	   41.0000 	   21.6683
    1.6403 	   87.8710 	    4.0000 	   41.0000 	   21.8173
    1.6556 	   88.0310 	    4.0000 	   41.0000 	   21.9773
    1.5488 	   88.1940 	    4.0000 	   41.0000 	   22.1403
    1.5183 	   88.3600 	    4.0000 	   41.0000 	   22.3063
    1.4878 	   88.5240 	    4.0000 	   41.0000 	   22.4703
    1.5183 	   88.6790 	    4.0000 	   41.0000 	   22.6253
    1.4725 	   88.8260 	    4.0000 	   41.0000 	   22.7723
    1.6861 	   88.9880 	    4.0000 	   41.0000 	   22.9343
    1.5030 	   89.1390 	    4.0000 	   41.0000 	   23.0854
    1.6709 	   89.2870 	    4.0000 	   41.0000 	   23.2334
    1.6251 	   89.4470 	    4.0000 	   41.0000 	   23.3934
    1.3504 	   89.5960 	    4.0000 	   41.0000 	   23.5424
    1.3962 	   89.7480 	    4.0000 	   41.0000 	   23.6944
    1.5183 	   89.8960 	    4.0000 	   41.0000 	   23.8424
    1.3809 	   90.0590 	    4.0000 	   41.0000 	   24.0054
    1.6098 	   90.2250 	    4.0000 	   41.0000 	   24.1714
    1.3962 	   90.3890 	    4.0000 	   41.0000 	   24.3354
    1.2589 	   90.5540 	    4.0000 	   41.0000 	   24.5004
    1.3657 	   90.7090 	    4.0000 	   41.0000 	   24.6554
    1.3809 	   90.8660 	    4.0000 	   41.0000 	   24.8125
    1.4420 	   91.0280 	    4.0000 	   41.0000 	   24.9745
    1.4267 	   91.1800 	    4.0000 	   41.0000 	   25.1265
    1.4267 	   91.3290 	    4.0000 	   41.0000 	   25.2755
    1.3962 	   91.4900 	    4.0000 	   41.0000 	   25.4365
    1.1215 	   91.6470 	    4.0000 	   41.0000 	   25.5935
    1.2436 	   91.7980 	    4.0000 	   41.0000 	   25.7445
    1.4420 	   91.9570 	    4.0000 	   41.0000 	   25.9035
    1.3046 	   92.1280 	    4.0000 	   41.0000 	   26.0745
    1.2436 	   92.2960 	    4.0000 	   41.0000 	   26.2425
    1.1521 	   92.4610 	    4.0000 	   41.0000 	   26.4075
    1.3046 	   92.6220 	    4.0000 	   41.0000 	   26.5686
    1.1978 	   92.7780 	    4.0000 	   41.0000 	   26.7246
    0.9689 	   92.9320 	    4.0000 	   41.0000 	   26.8786
    1.1215 	   93.0950 	    4.0000 	   41.0000 	   27.0416
    1.2589 	   93.2550 	    4.0000 	   41.0000 	   27.2016
    1.1673 	   93.4090 	    4.0000 	   41.0000 	   27.3556
    1.1673 	   93.5610 	    4.0000 	   41.0000 	   27.5076
    1.1673 	   93.7200 	    4.0000 	   41.0000 	   27.6666
    1.2894 	   93.8710 	    4.0000 	   41.0000 	   27.8176
    0.9689 	   94.0230 	    4.0000 	   41.0000 	   27.9696
    1.2131 	   94.1830 	    4.0000 	   41.0000 	   28.1296
    0.8927 	   94.3410 	    4.0000 	   41.0000 	   28.2877
    0.8774 	   94.5070 	    4.0000 	   41.0000 	   28.4537
    1.0300 	   94.6690 	    4.0000 	   41.0000 	   28.6157
    1.0605 	   94.8230 	    4.0000 	   41.0000 	   28.7697
    0.8774 	   94.9900 	    4.0000 	   41.0000 	   28.9367
    1.1826 	   95.1590 	    4.0000 	   41.0000 	   29.1057
    1.2131 	   95.3110 	    4.0000 	   41.0000 	   29.2577
    1.0758 	   95.4680 	    4.0000 	   41.0000 	   29.4147
    1.0452 	   95.6230 	    4.0000 	   41.0000 	   29.5697
    1.1215 	   95.7820 	    4.0000 	   41.0000 	   29.7287
    1.0605 	   95.9400 	    4.0000 	   41.0000 	   29.8867
    1.1673 	   96.1150 	    4.0000 	   41.0000 	   30.0618
    0.9995 	   96.2820 	    4.0000 	   41.0000 	   30.2288
    1.2284 	   96.4460 	    4.0000 	   41.0000 	   30.3928
    1.0452 	   96.6090 	    4.0000 	   41.0000 	   30.5558
    1.0452 	   96.7700 	    4.0000 	   41.0000 	   30.7168
    1.1063 	   96.9240 	    4.0000 	   41.0000 	   30.8708
    1.1826 	   97.0900 	    4.0000 	   41.0000 	   31.0368
    1.0300 	   97.2470 	    4.0000 	   41.0000 	   31.1938
    1.1063 	   97.4190 	    4.0000 	   41.0000 	   31.3658
    0.9384 	   97.5840 	    4.0000 	   41.0000 	   31.5308
    0.9842 	   97.7450 	    4.0000 	   41.0000 	   31.6919
    0.9689 	   97.8970 	    4.0000 	   41.0000 	   31.8439
    0.9079 	   98.0510 	    4.0000 	   41.0000 	   31.9979
    1.0758 	   98.2080 	    4.0000 	   41.0000 	   32.1549
    0.9842 	   98.3760 	    4.0000 	   41.0000 	   32.3229
    0.9995 	   98.5430 	    4.0000 	   41.0000 	   32.4899
    0.9995 	   98.7010 	    4.0000 	   41.0000 	   32.6479
    0.9537 	   98.8550 	    4.0000 	   41.0000 	   32.8019
    0.9232 	   99.0170 	    4.0000 	   41.0000 	   32.9639
    1.1063 	   99.1750 	    4.0000 	   41.0000 	   33.1219
    1.0605 	   99.3280 	    4.0000 	   41.0000 	   33.2749
    0.9537 	   99.4930 	    4.0000 	   41.0000 	   33.4399
    1.0605 	   99.6560 	    4.0000 	   41.0000 	   33.6030
    0.9537 	   99.8140 	    4.0000 	   41.0000 	   33.7610
    0.8927 	   99.9740 	    4.0000 	   41.0000 	   33.9210
    0.9384 	  100.1380 	    4.0000 	   41.0000 	   34.0850
    0.9537 	  100.2940 	    4.0000 	   41.0000 	   34.2410
    0.8774 	  100.4640 	    4.0000 	   41.0000 	   34.4110
    0.8927 	  100.6310 	    4.0000 	   41.0000 	   34.5780
    0.8774 	  100.7930 	    4.0000 	   41.0000 	   34.7400
    0.9384 	  100.9500 	    4.0000 	   41.0000 	   34.8960
    0.8774 	  101.1070 	    4.0000 	   41.0000 	   35.0530
    0.9537 	  101.2630 	    4.0000 	   41.0000 	   35.2091
    0.8316 	  101.4180 	    4.0000 	   41.0000 	   35.3641
    0.8316 	  101.5730 	    4.0000 	   41.0000 	   35.5191
    0.7553 	  101.7320 	    4.0000 	   41.0000 	   35.6781
    0.6027 	  101.8840 	    4.0000 	   41.0000 	   35.8301
    0.9537 	  102.0570 	    4.0000 	   41.0000 	   36.0031
    0.9537 	  102.2250 	    4.0000 	   41.0000 	   36.1711
    0.8774 	  102.3860 	    4.0000 	   41.0000 	   36.3321
    1.0300 	  102.5410 	    4.0000 	   41.0000 	   36.4871
    0.8316 	  102.7010 	    4.0000 	   41.0000 	   36.6471
    0.7858 	  102.8610 	    4.0000 	   41.0000 	   36.8071
    0.6180 	  103.0350 	    4.0000 	   41.0000 	   36.9812
    0.8164 	  103.2080 	    4.0000 	   41.0000 	   37.1542
    0.7095 	  103.3840 	    4.0000 	   41.0000 	   37.3302
    1.0300 	  103.5560 	    4.0000 	   41.0000 	   37.5022
    1.0147 	  103.7220 	    4.0000 	   41.0000 	   37.6682
    0.7706 	  103.8760 	    4.0000 	   41.0000 	   37.8222
    0.8316 	  104.0340 	    4.0000 	   41.0000 	   37.9802
    0.8316 	  104.1920 	    4.0000 	   41.0000 	   38.1382
    0.7095 	  104.3560 	    4.0000 	   41.0000 	   38.3022
    0.8316 	  104.4420 	    4.0000 	   41.0000 	   38.3882