File: instron/deadline/bak/size/bare_15_1/bare_15_1_60_30.txt
Thayer School of Engineering        Instron 4442 Mechanical Testing System
7/9/2018 12:43:22 AM

  Force (N)	Extension (mm)	Not Used	Not Used	Not Used	     Hour	    Minute	    Second
    0.4349 	    0.5070 	    0.0000 	   44.0000 	    3.5099
    0.3281 	    0.5900 	    0.0000 	   44.0000 	    3.6759
    0.4044 	    0.6880 	    0.0000 	   44.0000 	    3.8719
    0.4349 	    0.7660 	    0.0000 	   44.0000 	    4.0279
    0.4349 	    0.8765 	    0.0000 	   44.0000 	    4.2489
    0.3738 	    0.9765 	    0.0000 	   44.0000 	    4.4489
    0.3738 	    1.0735 	    0.0000 	   44.0000 	    4.6429
    0.4044 	    1.1580 	    0.0000 	   44.0000 	    4.8120
    0.1907 	    1.2375 	    0.0000 	   44.0000 	    4.9710
    0.1907 	    1.3450 	    0.0000 	   44.0000 	    5.1860
    0.5112 	    1.4335 	    0.0000 	   44.0000 	    5.3630
    0.3891 	    1.5410 	    0.0000 	   44.0000 	    5.5780
    0.5417 	    1.6330 	    0.0000 	   44.0000 	    5.7610
    0.0992 	    1.6960 	    0.0000 	   44.0000 	    5.8870
    0.4807 	    1.7770 	    0.0000 	   44.0000 	    6.0490
    0.4501 	    1.8395 	    0.0000 	   44.0000 	    6.1740
    0.4807 	    1.9070 	    0.0000 	   44.0000 	    6.3090
    0.4349 	    1.9735 	    0.0000 	   44.0000 	    6.4420
    0.4959 	    2.0365 	    0.0000 	   44.0000 	    6.5681
    0.3891 	    2.1020 	    0.0000 	   44.0000 	    6.6991
    0.4349 	    2.1665 	    0.0000 	   44.0000 	    6.8281
    0.5722 	    2.2310 	    0.0000 	   44.0000 	    6.9571
    0.5417 	    2.2970 	    0.0000 	   44.0000 	    7.0891
    0.4501 	    2.3620 	    0.0000 	   44.0000 	    7.2191
    0.4044 	    2.4275 	    0.0000 	   44.0000 	    7.3501
    0.4654 	    2.4915 	    0.0000 	   44.0000 	    7.4781
    0.4807 	    2.5550 	    0.0000 	   44.0000 	    7.6051
    0.4807 	    2.6200 	    0.0000 	   44.0000 	    7.7351
    0.5570 	    2.6845 	    0.0000 	   44.0000 	    7.8641
    0.5112 	    2.7460 	    0.0000 	   44.0000 	    7.9871
    0.4196 	    2.8085 	    0.0000 	   44.0000 	    8.1121
    0.5264 	    2.8715 	    0.0000 	   44.0000 	    8.2382
    0.4959 	    2.9350 	    0.0000 	   44.0000 	    8.3652
    0.3128 	    2.9955 	    0.0000 	   44.0000 	    8.4862
    0.4044 	    3.0575 	    0.0000 	   44.0000 	    8.6102
    0.5417 	    3.1195 	    0.0000 	   44.0000 	    8.7342
    0.6180 	    3.1845 	    0.0000 	   44.0000 	    8.8642
    0.4349 	    3.2495 	    0.0000 	   44.0000 	    8.9942
    0.4654 	    3.3105 	    0.0000 	   44.0000 	    9.1162
    0.4959 	    3.3725 	    0.0000 	   44.0000 	    9.2402
    0.5875 	    3.4365 	    0.0000 	   44.0000 	    9.3682
    0.4501 	    3.4995 	    0.0000 	   44.0000 	    9.4942
    0.5112 	    3.5615 	    0.0000 	   44.0000 	    9.6182
    0.5722 	    3.6265 	    0.0000 	   44.0000 	    9.7482
    0.6180 	    3.6945 	    0.0000 	   44.0000 	    9.8842
    0.4807 	    3.7590 	    0.0000 	   44.0000 	   10.0133
    0.2518 	    3.8230 	    0.0000 	   44.0000 	   10.1413
    0.1602 	    3.8865 	    0.0000 	   44.0000 	   10.2683
    0.3891 	    3.9515 	    0.0000 	   44.0000 	   10.3983
    0.4349 	    4.0120 	    0.0000 	   44.0000 	   10.5193
    0.6332 	    4.0760 	    0.0000 	   44.0000 	   10.6473
    0.4349 	    4.1375 	    0.0000 	   44.0000 	   10.7703
    0.4807 	    4.1985 	    0.0000 	   44.0000 	   10.8923
    0.4654 	    4.2615 	    0.0000 	   44.0000 	   11.0183
    0.4196 	    4.3250 	    0.0000 	   44.0000 	   11.1453
    0.4501 	    4.3880 	    0.0000 	   44.0000 	   11.2713
    0.6332 	    4.4535 	    0.0000 	   44.0000 	   11.4023
    0.5570 	    4.5175 	    0.0000 	   44.0000 	   11.5303
    0.3738 	    4.5815 	    0.0000 	   44.0000 	   11.6583
    0.6027 	    4.6465 	    0.0000 	   44.0000 	   11.7884
    0.4654 	    4.7105 	    0.0000 	   44.0000 	   11.9164
    0.5875 	    4.7750 	    0.0000 	   44.0000 	   12.0454
    0.5570 	    4.8380 	    0.0000 	   44.0000 	   12.1714
    0.5570 	    4.9010 	    0.0000 	   44.0000 	   12.2974
    0.4196 	    4.9675 	    0.0000 	   44.0000 	   12.4304
    0.4501 	    5.0305 	    0.0000 	   44.0000 	   12.5564
    0.5875 	    5.0945 	    0.0000 	   44.0000 	   12.6844
    0.5875 	    5.1595 	    0.0000 	   44.0000 	   12.8144
    0.3738 	    5.2210 	    0.0000 	   44.0000 	   12.9374
    0.6027 	    5.2860 	    0.0000 	   44.0000 	   13.0674
    0.4654 	    5.3505 	    0.0000 	   44.0000 	   13.1964
    0.4807 	    5.4140 	    0.0000 	   44.0000 	   13.3234
    0.3738 	    5.4780 	    0.0000 	   44.0000 	   13.4515
    0.3433 	    5.5435 	    0.0000 	   44.0000 	   13.5825
    0.5264 	    5.6085 	    0.0000 	   44.0000 	   13.7125
    0.5570 	    5.6745 	    0.0000 	   44.0000 	   13.8445
    0.4959 	    5.7415 	    0.0000 	   44.0000 	   13.9785
    0.4349 	    5.8050 	    0.0000 	   44.0000 	   14.1055
    0.4654 	    5.8705 	    0.0000 	   44.0000 	   14.2365
    0.5264 	    5.9350 	    0.0000 	   44.0000 	   14.3655
    0.5264 	    5.9990 	    0.0000 	   44.0000 	   14.4935
    0.5875 	    6.0635 	    0.0000 	   44.0000 	   14.6225
    0.5112 	    6.1275 	    0.0000 	   44.0000 	   14.7505
    0.5112 	    6.1925 	    0.0000 	   44.0000 	   14.8805
    0.4959 	    6.2570 	    0.0000 	   44.0000 	   15.0095
    0.4807 	    6.3200 	    0.0000 	   44.0000 	   15.1355
    0.5264 	    6.3845 	    0.0000 	   44.0000 	   15.2646
    0.4959 	    6.4495 	    0.0000 	   44.0000 	   15.3946
    0.6638 	    6.5130 	    0.0000 	   44.0000 	   15.5216
    0.4959 	    6.5815 	    0.0000 	   44.0000 	   15.6586
    0.4959 	    6.6470 	    0.0000 	   44.0000 	   15.7896
    0.5112 	    6.7110 	    0.0000 	   44.0000 	   15.9176
    0.5570 	    6.7760 	    0.0000 	   44.0000 	   16.0476
    0.5570 	    6.8410 	    0.0000 	   44.0000 	   16.1776
    0.6180 	    6.9045 	    0.0000 	   44.0000 	   16.3046
    0.6332 	    6.9680 	    0.0000 	   44.0000 	   16.4316
    0.4807 	    7.0355 	    0.0000 	   44.0000 	   16.5666
    0.5875 	    7.0995 	    0.0000 	   44.0000 	   16.6946
    0.4654 	    7.1645 	    0.0000 	   44.0000 	   16.8246
    0.6180 	    7.2290 	    0.0000 	   44.0000 	   16.9536
    0.1907 	    7.2960 	    0.0000 	   44.0000 	   17.0877
    0.4349 	    7.3605 	    0.0000 	   44.0000 	   17.2167
    0.7858 	    7.4230 	    0.0000 	   44.0000 	   17.3417
    0.3128 	    7.4880 	    0.0000 	   44.0000 	   17.4707
    0.3433 	    7.5535 	    0.0000 	   44.0000 	   17.6027
    0.3891 	    7.6190 	    0.0000 	   44.0000 	   17.7337
    0.4654 	    7.6850 	    0.0000 	   44.0000 	   17.8657
    0.4654 	    7.7470 	    0.0000 	   44.0000 	   17.9897
    0.5722 	    7.8120 	    0.0000 	   44.0000 	   18.1197
    0.7706 	    7.8715 	    0.0000 	   44.0000 	   18.2387
    0.5417 	    7.9315 	    0.0000 	   44.0000 	   18.3587
    0.5570 	    7.9970 	    0.0000 	   44.0000 	   18.4897
    0.6332 	    8.0615 	    0.0000 	   44.0000 	   18.6187
    0.4959 	    8.1280 	    0.0000 	   44.0000 	   18.7518
    0.1450 	    8.1955 	    0.0000 	   44.0000 	   18.8868
    0.4349 	    8.2635 	    0.0000 	   44.0000 	   19.0228
    0.5875 	    8.3315 	    0.0000 	   44.0000 	   19.1588
    0.6180 	    8.3980 	    0.0000 	   44.0000 	   19.2918
    0.6027 	    8.4665 	    0.0000 	   44.0000 	   19.4288
    0.5417 	    8.5320 	    0.0000 	   44.0000 	   19.5598
    0.7553 	    8.5990 	    0.0000 	   44.0000 	   19.6938
    0.6485 	    8.6665 	    0.0000 	   44.0000 	   19.8288
    0.5112 	    8.7330 	    0.0000 	   44.0000 	   19.9618
    0.5112 	    8.8000 	    0.0000 	   44.0000 	   20.0958
    0.5417 	    8.8710 	    0.0000 	   44.0000 	   20.2378
    0.6180 	    8.9385 	    0.0000 	   44.0000 	   20.3728
    0.5570 	    9.0070 	    0.0000 	   44.0000 	   20.5099
    0.6485 	    9.0760 	    0.0000 	   44.0000 	   20.6479
    0.6180 	    9.1420 	    0.0000 	   44.0000 	   20.7799
    0.7553 	    9.2085 	    0.0000 	   44.0000 	   20.9129
    0.5417 	    9.2765 	    0.0000 	   44.0000 	   21.0489
    0.4959 	    9.3435 	    0.0000 	   44.0000 	   21.1829
    0.6943 	    9.4095 	    0.0000 	   44.0000 	   21.3149
    0.6180 	    9.4795 	    0.0000 	   44.0000 	   21.4549
    0.2213 	    9.5460 	    0.0000 	   44.0000 	   21.5879
    0.6638 	    9.6175 	    0.0000 	   44.0000 	   21.7309
    0.5112 	    9.6840 	    0.0000 	   44.0000 	   21.8639
    0.5722 	    9.7520 	    0.0000 	   44.0000 	   21.9999
    0.6332 	    9.8220 	    0.0000 	   44.0000 	   22.1399
    0.5112 	    9.8935 	    0.0000 	   44.0000 	   22.2830
    0.4807 	    9.9610 	    0.0000 	   44.0000 	   22.4180
    0.5570 	   10.0275 	    0.0000 	   44.0000 	   22.5510
    0.5875 	   10.0945 	    0.0000 	   44.0000 	   22.6850
    0.6027 	   10.1620 	    0.0000 	   44.0000 	   22.8200
    0.6027 	   10.2300 	    0.0000 	   44.0000 	   22.9560
    0.5570 	   10.3010 	    0.0000 	   44.0000 	   23.0980
    0.5875 	   10.3710 	    0.0000 	   44.0000 	   23.2370
    0.5264 	   10.4410 	    0.0000 	   44.0000 	   23.3770
    0.6332 	   10.5090 	    0.0000 	   44.0000 	   23.5130
    0.6332 	   10.5795 	    0.0000 	   44.0000 	   23.6540
    0.6790 	   10.6510 	    0.0000 	   44.0000 	   23.7970
    0.5112 	   10.7190 	    0.0000 	   44.0000 	   23.9330
    0.5417 	   10.7885 	    0.0000 	   44.0000 	   24.0721
    0.5570 	   10.8595 	    0.0000 	   44.0000 	   24.2141
    0.5570 	   10.9245 	    0.0000 	   44.0000 	   24.3441
    0.6485 	   10.9910 	    0.0000 	   44.0000 	   24.4771
    0.6027 	   11.0625 	    0.0000 	   44.0000 	   24.6201
    0.6180 	   11.1320 	    0.0000 	   44.0000 	   24.7591
    0.7858 	   11.2025 	    0.0000 	   44.0000 	   24.9001
    0.6180 	   11.2725 	    0.0000 	   44.0000 	   25.0401
    0.5722 	   11.3410 	    0.0000 	   44.0000 	   25.1771
    0.5264 	   11.4105 	    0.0000 	   44.0000 	   25.3161
    0.5264 	   11.4825 	    0.0000 	   44.0000 	   25.4601
    0.6332 	   11.5540 	    0.0000 	   44.0000 	   25.6031
    0.6485 	   11.6250 	    0.0000 	   44.0000 	   25.7452
    0.6027 	   11.6965 	    0.0000 	   44.0000 	   25.8882
    0.7095 	   11.7675 	    0.0000 	   44.0000 	   26.0302
    0.5875 	   11.8395 	    0.0000 	   44.0000 	   26.1742
    0.6180 	   11.9010 	    0.0000 	   44.0000 	   26.2972
    0.6790 	   11.9675 	    0.0000 	   44.0000 	   26.4302
    0.6180 	   12.0405 	    0.0000 	   44.0000 	   26.5762
    0.6638 	   12.1080 	    0.0000 	   44.0000 	   26.7112
    0.6332 	   12.1780 	    0.0000 	   44.0000 	   26.8512
    0.6332 	   12.2510 	    0.0000 	   44.0000 	   26.9972
    0.4807 	   12.3225 	    0.0000 	   44.0000 	   27.1402
    0.5570 	   12.3930 	    0.0000 	   44.0000 	   27.2812
    0.6180 	   12.4625 	    0.0000 	   44.0000 	   27.4202
    0.5722 	   12.5330 	    0.0000 	   44.0000 	   27.5613
    0.7706 	   12.6070 	    0.0000 	   44.0000 	   27.7093
    0.6180 	   12.6785 	    0.0000 	   44.0000 	   27.8523
    0.6027 	   12.7445 	    0.0000 	   44.0000 	   27.9843
    0.5875 	   12.8165 	    0.0000 	   44.0000 	   28.1283
    0.4349 	   12.8875 	    0.0000 	   44.0000 	   28.2703
    0.6180 	   12.9580 	    0.0000 	   44.0000 	   28.4113
    0.6180 	   13.0290 	    0.0000 	   44.0000 	   28.5533
    0.6943 	   13.1040 	    0.0000 	   44.0000 	   28.7033
    0.4044 	   13.1760 	    0.0000 	   44.0000 	   28.8473
    0.6180 	   13.2475 	    0.0000 	   44.0000 	   28.9903
    0.7401 	   13.3180 	    0.0000 	   44.0000 	   29.1313
    0.5722 	   13.3900 	    0.0000 	   44.0000 	   29.2754
    0.6027 	   13.4620 	    0.0000 	   44.0000 	   29.4194
    0.5264 	   13.5325 	    0.0000 	   44.0000 	   29.5604
    0.6943 	   13.6040 	    0.0000 	   44.0000 	   29.7034
    0.6485 	   13.6755 	    0.0000 	   44.0000 	   29.8464
    0.6638 	   13.7470 	    0.0000 	   44.0000 	   29.9894
    0.6943 	   13.8195 	    0.0000 	   44.0000 	   30.1344
    0.6638 	   13.8855 	    0.0000 	   44.0000 	   30.2664
    0.6485 	   13.9540 	    0.0000 	   44.0000 	   30.4034
    0.6638 	   14.0210 	    0.0000 	   44.0000 	   30.5374
    0.8011 	   14.0925 	    0.0000 	   44.0000 	   30.6804
    0.6790 	   14.1640 	    0.0000 	   44.0000 	   30.8234
    0.6332 	   14.2370 	    0.0000 	   44.0000 	   30.9695
    0.6485 	   14.3115 	    0.0000 	   44.0000 	   31.1185
    0.8469 	   14.3815 	    0.0000 	   44.0000 	   31.2585
    0.6790 	   14.4520 	    0.0000 	   44.0000 	   31.3995
    0.6332 	   14.5240 	    0.0000 	   44.0000 	   31.5435
    0.6790 	   14.5990 	    0.0000 	   44.0000 	   31.6935
    0.6943 	   14.6700 	    0.0000 	   44.0000 	   31.8355
    0.5875 	   14.7390 	    0.0000 	   44.0000 	   31.9735
    0.6180 	   14.8150 	    0.0000 	   44.0000 	   32.1255
    0.6790 	   14.8855 	    0.0000 	   44.0000 	   32.2665
    0.6943 	   14.9590 	    0.0000 	   44.0000 	   32.4135
    0.6638 	   15.0320 	    0.0000 	   44.0000 	   32.5595
    0.7401 	   15.1055 	    0.0000 	   44.0000 	   32.7066
    0.3891 	   15.1780 	    0.0000 	   44.0000 	   32.8516
    0.8011 	   15.2500 	    0.0000 	   44.0000 	   32.9956
    0.6027 	   15.3210 	    0.0000 	   44.0000 	   33.1376
    0.6180 	   15.3940 	    0.0000 	   44.0000 	   33.2836
    0.7248 	   15.4665 	    0.0000 	   44.0000 	   33.4286
    0.6943 	   15.5445 	    0.0000 	   44.0000 	   33.5846
    0.7553 	   15.6195 	    0.0000 	   44.0000 	   33.7336
    0.6790 	   15.6925 	    0.0000 	   44.0000 	   33.8806
    0.7553 	   15.7645 	    0.0000 	   44.0000 	   34.0246
    0.6332 	   15.8365 	    0.0000 	   44.0000 	   34.1686
    0.7553 	   15.9100 	    0.0000 	   44.0000 	   34.3156
    0.5722 	   15.9830 	    0.0000 	   44.0000 	   34.4617
    0.9079 	   16.0580 	    0.0000 	   44.0000 	   34.6117
    0.6790 	   16.1325 	    0.0000 	   44.0000 	   34.7607
    0.8316 	   16.2045 	    0.0000 	   44.0000 	   34.9047
    0.7401 	   16.2760 	    0.0000 	   44.0000 	   35.0477
    0.7095 	   16.3500 	    0.0000 	   44.0000 	   35.1957
    0.7095 	   16.4210 	    0.0000 	   44.0000 	   35.3377
    0.7401 	   16.4935 	    0.0000 	   44.0000 	   35.4827
    0.6180 	   16.5670 	    0.0000 	   44.0000 	   35.6297
    0.8316 	   16.6400 	    0.0000 	   44.0000 	   35.7757
    0.7095 	   16.7125 	    0.0000 	   44.0000 	   35.9207
    0.6638 	   16.7855 	    0.0000 	   44.0000 	   36.0667
    0.5722 	   16.8585 	    0.0000 	   44.0000 	   36.2128
    0.5875 	   16.9315 	    0.0000 	   44.0000 	   36.3588
    0.5417 	   17.0055 	    0.0000 	   44.0000 	   36.5068
    0.8011 	   17.0785 	    0.0000 	   44.0000 	   36.6528
    0.5417 	   17.1485 	    0.0000 	   44.0000 	   36.7928
    0.5875 	   17.2150 	    0.0000 	   44.0000 	   36.9258
    0.7095 	   17.2905 	    0.0000 	   44.0000 	   37.0768
    0.7401 	   17.3640 	    0.0000 	   44.0000 	   37.2238
    0.6485 	   17.4365 	    0.0000 	   44.0000 	   37.3688
    0.3281 	   17.5105 	    0.0000 	   44.0000 	   37.5168
    0.6332 	   17.5865 	    0.0000 	   44.0000 	   37.6688
    0.7248 	   17.6595 	    0.0000 	   44.0000 	   37.8148
    0.7553 	   17.7305 	    0.0000 	   44.0000 	   37.9569
    0.8774 	   17.8040 	    0.0000 	   44.0000 	   38.1039
    0.6790 	   17.8775 	    0.0000 	   44.0000 	   38.2509
    0.6943 	   17.9535 	    0.0000 	   44.0000 	   38.4029
    0.5722 	   18.0265 	    0.0000 	   44.0000 	   38.5489
    0.6332 	   18.1005 	    0.0000 	   44.0000 	   38.6969
    0.7858 	   18.1755 	    0.0000 	   44.0000 	   38.8469
    0.8316 	   18.2475 	    0.0000 	   44.0000 	   38.9909
    0.6180 	   18.3185 	    0.0000 	   44.0000 	   39.1329
    0.6790 	   18.3880 	    0.0000 	   44.0000 	   39.2719
    0.6943 	   18.4580 	    0.0000 	   44.0000 	   39.4119
    0.6638 	   18.5315 	    0.0000 	   44.0000 	   39.5589
    0.6485 	   18.6070 	    0.0000 	   44.0000 	   39.7090
    0.5570 	   18.6810 	    0.0000 	   44.0000 	   39.8580
    0.4807 	   18.7560 	    0.0000 	   44.0000 	   40.0080
    0.6638 	   18.8310 	    0.0000 	   44.0000 	   40.1580
    0.7553 	   18.9060 	    0.0000 	   44.0000 	   40.3080
    0.7095 	   18.9795 	    0.0000 	   44.0000 	   40.4550
    0.7401 	   19.0560 	    0.0000 	   44.0000 	   40.6080
    0.6790 	   19.1300 	    0.0000 	   44.0000 	   40.7550
    0.6943 	   19.2065 	    0.0000 	   44.0000 	   40.9080
    0.7858 	   19.2800 	    0.0000 	   44.0000 	   41.0550
    0.7401 	   19.3550 	    0.0000 	   44.0000 	   41.2050
    0.6790 	   19.4305 	    0.0000 	   44.0000 	   41.3560
    0.5570 	   19.5015 	    0.0000 	   44.0000 	   41.4981
    0.6638 	   19.5715 	    0.0000 	   44.0000 	   41.6381
    0.6638 	   19.6440 	    0.0000 	   44.0000 	   41.7831
    0.9232 	   19.7190 	    0.0000 	   44.0000 	   41.9331
    0.6485 	   19.7940 	    0.0000 	   44.0000 	   42.0831
    0.4349 	   19.8685 	    0.0000 	   44.0000 	   42.2321
    0.7553 	   19.9445 	    0.0000 	   44.0000 	   42.3841
    0.7248 	   20.0220 	    0.0000 	   44.0000 	   42.5391
    0.8316 	   20.0990 	    0.0000 	   44.0000 	   42.6931
    0.6638 	   20.1745 	    0.0000 	   44.0000 	   42.8441
    0.6943 	   20.2505 	    0.0000 	   44.0000 	   42.9961
    0.7706 	   20.3265 	    0.0000 	   44.0000 	   43.1481
    0.6790 	   20.4020 	    0.0000 	   44.0000 	   43.2992
    0.8621 	   20.4785 	    0.0000 	   44.0000 	   43.4522
    0.6027 	   20.5575 	    0.0000 	   44.0000 	   43.6102
    0.7095 	   20.6400 	    0.0000 	   44.0000 	   43.7752
    0.6943 	   20.7165 	    0.0000 	   44.0000 	   43.9282
    0.7858 	   20.7925 	    0.0000 	   44.0000 	   44.0802
    0.7706 	   20.8695 	    0.0000 	   44.0000 	   44.2342
    0.6943 	   20.9455 	    0.0000 	   44.0000 	   44.3862
    0.7401 	   21.0140 	    0.0000 	   44.0000 	   44.5232
    0.6943 	   21.0895 	    0.0000 	   44.0000 	   44.6742
    0.8316 	   21.1670 	    0.0000 	   44.0000 	   44.8292
    0.5875 	   21.2425 	    0.0000 	   44.0000 	   44.9803
    0.8316 	   21.3175 	    0.0000 	   44.0000 	   45.1303
    0.7706 	   21.3935 	    0.0000 	   44.0000 	   45.2823
    0.6485 	   21.4700 	    0.0000 	   44.0000 	   45.4353
    0.7095 	   21.5485 	    0.0000 	   44.0000 	   45.5923
    0.7553 	   21.6265 	    0.0000 	   44.0000 	   45.7483
    0.8011 	   21.7055 	    0.0000 	   44.0000 	   45.9063
    0.7553 	   21.7810 	    0.0000 	   44.0000 	   46.0573
    0.8164 	   21.8580 	    0.0000 	   44.0000 	   46.2113
    0.6485 	   21.9350 	    0.0000 	   44.0000 	   46.3653
    0.6943 	   22.0125 	    0.0000 	   44.0000 	   46.5203
    0.7248 	   22.0900 	    0.0000 	   44.0000 	   46.6754
    0.7401 	   22.1675 	    0.0000 	   44.0000 	   46.8304
    0.8316 	   22.2455 	    0.0000 	   44.0000 	   46.9864
    0.7553 	   22.3215 	    0.0000 	   44.0000 	   47.1384
    0.8316 	   22.3980 	    0.0000 	   44.0000 	   47.2914
    1.0452 	   22.4740 	    0.0000 	   44.0000 	   47.4434
    0.8469 	   22.5530 	    0.0000 	   44.0000 	   47.6014
    0.4349 	   22.6285 	    0.0000 	   44.0000 	   47.7524
    0.9232 	   22.7050 	    0.0000 	   44.0000 	   47.9054
    0.7553 	   22.7785 	    0.0000 	   44.0000 	   48.0524
    0.7858 	   22.8560 	    0.0000 	   44.0000 	   48.2074
    0.7401 	   22.9330 	    0.0000 	   44.0000 	   48.3614
    0.7401 	   23.0115 	    0.0000 	   44.0000 	   48.5185
    0.5875 	   23.0915 	    0.0000 	   44.0000 	   48.6785
    0.7095 	   23.1675 	    0.0000 	   44.0000 	   48.8305
    0.7858 	   23.2455 	    0.0000 	   44.0000 	   48.9855
    0.6638 	   23.3220 	    0.0000 	   44.0000 	   49.1395
    0.9232 	   23.3985 	    0.0000 	   44.0000 	   49.2925
    0.7095 	   23.4720 	    0.0000 	   44.0000 	   49.4395
    0.6638 	   23.5480 	    0.0000 	   44.0000 	   49.5915
    0.4349 	   23.6235 	    0.0000 	   44.0000 	   49.7425
    0.9079 	   23.6985 	    0.0000 	   44.0000 	   49.8925
    0.7706 	   23.7740 	    0.0000 	   44.0000 	   50.0435
    0.7706 	   23.8445 	    0.0000 	   44.0000 	   50.1846
    0.6943 	   23.9150 	    0.0000 	   44.0000 	   50.3256
    0.6485 	   23.9890 	    0.0000 	   44.0000 	   50.4736
    0.7553 	   24.0690 	    0.0000 	   44.0000 	   50.6336
    0.7706 	   24.1465 	    0.0000 	   44.0000 	   50.7886
    0.8316 	   24.2280 	    0.0000 	   44.0000 	   50.9516
    0.8621 	   24.3050 	    0.0000 	   44.0000 	   51.1056
    0.7401 	   24.3745 	    0.0000 	   44.0000 	   51.2446
    0.8164 	   24.4455 	    0.0000 	   44.0000 	   51.3866
    0.7706 	   24.5245 	    0.0000 	   44.0000 	   51.5446
    0.7095 	   24.6050 	    0.0000 	   44.0000 	   51.7056
    0.7095 	   24.6825 	    0.0000 	   44.0000 	   51.8606
    0.7248 	   24.7610 	    0.0000 	   44.0000 	   52.0177
    0.7706 	   24.8385 	    0.0000 	   44.0000 	   52.1727
    0.8164 	   24.9160 	    0.0000 	   44.0000 	   52.3277
    0.7095 	   24.9950 	    0.0000 	   44.0000 	   52.4857
    0.7401 	   25.0755 	    0.0000 	   44.0000 	   52.6467
    0.8011 	   25.1550 	    0.0000 	   44.0000 	   52.8057
    0.9079 	   25.2340 	    0.0000 	   44.0000 	   52.9637
    0.7858 	   25.3130 	    0.0000 	   44.0000 	   53.1217
    0.9689 	   25.3915 	    0.0000 	   44.0000 	   53.2787
    0.8469 	   25.4695 	    0.0000 	   44.0000 	   53.4347
    0.8316 	   25.5515 	    0.0000 	   44.0000 	   53.5987
    0.8774 	   25.6240 	    0.0000 	   44.0000 	   53.7438
    0.7248 	   25.7040 	    0.0000 	   44.0000 	   53.9038
    0.6485 	   25.7765 	    0.0000 	   44.0000 	   54.0488
    0.7706 	   25.8490 	    0.0000 	   44.0000 	   54.1938
    0.7095 	   25.9220 	    0.0000 	   44.0000 	   54.3398
    0.8621 	   25.9925 	    0.0000 	   44.0000 	   54.4808
    0.8621 	   26.0705 	    0.0000 	   44.0000 	   54.6368
    0.7706 	   26.1505 	    0.0000 	   44.0000 	   54.7968
    0.8927 	   26.2300 	    0.0000 	   44.0000 	   54.9558
    0.8316 	   26.3085 	    0.0000 	   44.0000 	   55.1128
    0.7706 	   26.3870 	    0.0000 	   44.0000 	   55.2698
    0.7401 	   26.4660 	    0.0000 	   44.0000 	   55.4278
    0.6943 	   26.5475 	    0.0000 	   44.0000 	   55.5909
    0.8011 	   26.6280 	    0.0000 	   44.0000 	   55.7519
    0.8621 	   26.7070 	    0.0000 	   44.0000 	   55.9099
    0.8316 	   26.7900 	    0.0000 	   44.0000 	   56.0759
    0.7248 	   26.8700 	    0.0000 	   44.0000 	   56.2359
    0.6485 	   26.9490 	    0.0000 	   44.0000 	   56.3939
    0.7706 	   27.0295 	    0.0000 	   44.0000 	   56.5549
    0.8316 	   27.1100 	    0.0000 	   44.0000 	   56.7159
    0.7095 	   27.1890 	    0.0000 	   44.0000 	   56.8739
    0.6943 	   27.2685 	    0.0000 	   44.0000 	   57.0329
    0.8621 	   27.3455 	    0.0000 	   44.0000 	   57.1870
    0.8316 	   27.4225 	    0.0000 	   44.0000 	   57.3410
    0.9689 	   27.5020 	    0.0000 	   44.0000 	   57.5000
    1.0452 	   27.5825 	    0.0000 	   44.0000 	   57.6610
    0.8621 	   27.6645 	    0.0000 	   44.0000 	   57.8250
    0.8011 	   27.7455 	    0.0000 	   44.0000 	   57.9870
    0.7095 	   27.8255 	    0.0000 	   44.0000 	   58.1470
    0.8621 	   27.9090 	    0.0000 	   44.0000 	   58.3130
    0.7706 	   27.9900 	    0.0000 	   44.0000 	   58.4750
    0.8164 	   28.0720 	    0.0000 	   44.0000 	   58.6390
    0.8316 	   28.1490 	    0.0000 	   44.0000 	   58.7930
    0.8927 	   28.2240 	    0.0000 	   44.0000 	   58.9431
    0.8469 	   28.2975 	    0.0000 	   44.0000 	   59.0901
    0.8011 	   28.3700 	    0.0000 	   44.0000 	   59.2351
    0.7706 	   28.4445 	    0.0000 	   44.0000 	   59.3841
    0.7553 	   28.5275 	    0.0000 	   44.0000 	   59.5501
    0.7706 	   28.6095 	    0.0000 	   44.0000 	   59.7141
    0.8774 	   28.6905 	    0.0000 	   44.0000 	   59.8761
    0.7401 	   28.7725 	    0.0000 	   45.0000 	    0.0401
    0.7858 	   28.8690 	    0.0000 	   45.0000 	    0.2331
    0.8164 	   28.9470 	    0.0000 	   45.0000 	    0.3891
    0.7858 	   29.0310 	    0.0000 	   45.0000 	    0.5571
    0.8011 	   29.1145 	    0.0000 	   45.0000 	    0.7242
    0.8469 	   29.1975 	    0.0000 	   45.0000 	    0.8902
    0.8011 	   29.2800 	    0.0000 	   45.0000 	    1.0552
    0.8774 	   29.3640 	    0.0000 	   45.0000 	    1.2232
    0.7858 	   29.4450 	    0.0000 	   45.0000 	    1.3852
    0.8164 	   29.5190 	    0.0000 	   45.0000 	    1.5332
    0.8164 	   29.6015 	    0.0000 	   45.0000 	    1.6982
    0.7553 	   29.6815 	    0.0000 	   45.0000 	    1.8582
    0.8621 	   29.7625 	    0.0000 	   45.0000 	    2.0202
    0.7553 	   29.8450 	    0.0000 	   45.0000 	    2.1852
    0.8316 	   29.9275 	    0.0000 	   45.0000 	    2.3502
    0.8469 	   30.0100 	    0.0000 	   45.0000 	    2.5153
    0.9995 	   30.0930 	    0.0000 	   45.0000 	    2.6813
    0.7858 	   30.1725 	    0.0000 	   45.0000 	    2.8403
    0.8774 	   30.2535 	    0.0000 	   45.0000 	    3.0023
    0.8927 	   30.3350 	    0.0000 	   45.0000 	    3.1653
    1.0147 	   30.4170 	    0.0000 	   45.0000 	    3.3293
    0.8164 	   30.4985 	    0.0000 	   45.0000 	    3.4923
    0.9384 	   30.5830 	    0.0000 	   45.0000 	    3.6613
    0.6790 	   30.6660 	    0.0000 	   45.0000 	    3.8273
    0.8927 	   30.7480 	    0.0000 	   45.0000 	    3.9913
    0.7706 	   30.8305 	    0.0000 	   45.0000 	    4.1564
    0.8469 	   30.9130 	    0.0000 	   45.0000 	    4.3214
    0.6943 	   30.9960 	    0.0000 	   45.0000 	    4.4874
    0.8469 	   31.0780 	    0.0000 	   45.0000 	    4.6514
    0.6790 	   31.1565 	    0.0000 	   45.0000 	    4.8084
    0.8011 	   31.2390 	    0.0000 	   45.0000 	    4.9734
    0.8774 	   31.3180 	    0.0000 	   45.0000 	    5.1314
    0.8927 	   31.3975 	    0.0000 	   45.0000 	    5.2904
    0.7858 	   31.4800 	    0.0000 	   45.0000 	    5.4554
    0.8011 	   31.5625 	    0.0000 	   45.0000 	    5.6204
    0.8927 	   31.6435 	    0.0000 	   45.0000 	    5.7824
    0.8011 	   31.7265 	    0.0000 	   45.0000 	    5.9485
    0.8469 	   31.8090 	    0.0000 	   45.0000 	    6.1135
    0.8469 	   31.8915 	    0.0000 	   45.0000 	    6.2785
    0.9232 	   31.9765 	    0.0000 	   45.0000 	    6.4485
    0.7858 	   32.0600 	    0.0000 	   45.0000 	    6.6155
    0.8164 	   32.1425 	    0.0000 	   45.0000 	    6.7805
    0.7858 	   32.2275 	    0.0000 	   45.0000 	    6.9505
    0.9384 	   32.3050 	    0.0000 	   45.0000 	    7.1055
    0.8774 	   32.3835 	    0.0000 	   45.0000 	    7.2625
    0.9079 	   32.4665 	    0.0000 	   45.0000 	    7.4285
    0.7401 	   32.5500 	    0.0000 	   45.0000 	    7.5955
    0.9232 	   32.6350 	    0.0000 	   45.0000 	    7.7656
    0.7248 	   32.7185 	    0.0000 	   45.0000 	    7.9316
    0.8774 	   32.8010 	    0.0000 	   45.0000 	    8.0976
    0.6638 	   32.8830 	    0.0000 	   45.0000 	    8.2616
    0.8469 	   32.9670 	    0.0000 	   45.0000 	    8.4296
    0.7858 	   33.0520 	    0.0000 	   45.0000 	    8.5996
    0.9232 	   33.1360 	    0.0000 	   45.0000 	    8.7676
    0.8316 	   33.2185 	    0.0000 	   45.0000 	    8.9326
    0.4349 	   33.3025 	    0.0000 	   45.0000 	    9.1006
    0.8469 	   33.3855 	    0.0000 	   45.0000 	    9.2666
    0.9079 	   33.4705 	    0.0000 	   45.0000 	    9.4367
    1.0300 	   33.5545 	    0.0000 	   45.0000 	    9.6047
    0.8164 	   33.6385 	    0.0000 	   45.0000 	    9.7727
    0.6943 	   33.7255 	    0.0000 	   45.0000 	    9.9467
    0.8011 	   33.8105 	    0.0000 	   45.0000 	   10.1167
    0.5722 	   33.8930 	    0.0000 	   45.0000 	   10.2817
    0.9232 	   33.9770 	    0.0000 	   45.0000 	   10.4497
    0.6332 	   34.0630 	    0.0000 	   45.0000 	   10.6217
    0.9079 	   34.1480 	    0.0000 	   45.0000 	   10.7917
    0.8164 	   34.2325 	    0.0000 	   45.0000 	   10.9607
    0.7401 	   34.3180 	    0.0000 	   45.0000 	   11.1317
    0.7553 	   34.4020 	    0.0000 	   45.0000 	   11.2998
    0.8469 	   34.4865 	    0.0000 	   45.0000 	   11.4688
    0.7858 	   34.5705 	    0.0000 	   45.0000 	   11.6368
    0.9384 	   34.6540 	    0.0000 	   45.0000 	   11.8038
    0.8469 	   34.7385 	    0.0000 	   45.0000 	   11.9728
    0.8011 	   34.8225 	    0.0000 	   45.0000 	   12.1408
    0.8316 	   34.9070 	    0.0000 	   45.0000 	   12.3098
    0.9537 	   34.9910 	    0.0000 	   45.0000 	   12.4778
    0.7858 	   35.0710 	    0.0000 	   45.0000 	   12.6378
    0.8927 	   35.1545 	    0.0000 	   45.0000 	   12.8048
    0.9232 	   35.2390 	    0.0000 	   45.0000 	   12.9739
    0.8927 	   35.3255 	    0.0000 	   45.0000 	   13.1469
    0.8469 	   35.4090 	    0.0000 	   45.0000 	   13.3139
    0.5570 	   35.4930 	    0.0000 	   45.0000 	   13.4819
    0.8469 	   35.5815 	    0.0000 	   45.0000 	   13.6589
    0.9232 	   35.6565 	    0.0000 	   45.0000 	   13.8089
    0.9232 	   35.7350 	    0.0000 	   45.0000 	   13.9659
    0.9995 	   35.8110 	    0.0000 	   45.0000 	   14.1179
    0.9689 	   35.8865 	    0.0000 	   45.0000 	   14.2689
    0.8774 	   35.9615 	    0.0000 	   45.0000 	   14.4189
    0.8774 	   36.0375 	    0.0000 	   45.0000 	   14.5709
    0.7858 	   36.1145 	    0.0000 	   45.0000 	   14.7250
    0.9079 	   36.1900 	    0.0000 	   45.0000 	   14.8760
    0.8927 	   36.2645 	    0.0000 	   45.0000 	   15.0250
    0.9995 	   36.3475 	    0.0000 	   45.0000 	   15.1910
    0.9384 	   36.4330 	    0.0000 	   45.0000 	   15.3620
    0.8469 	   36.5175 	    0.0000 	   45.0000 	   15.5310
    0.8774 	   36.6030 	    0.0000 	   45.0000 	   15.7010
    0.9842 	   36.6875 	    0.0000 	   45.0000 	   15.8700
    0.8621 	   36.7695 	    0.0000 	   45.0000 	   16.0340
    0.9232 	   36.8535 	    0.0000 	   45.0000 	   16.2020
    0.9079 	   36.9390 	    0.0000 	   45.0000 	   16.3730
    0.6180 	   37.0230 	    0.0000 	   45.0000 	   16.5411
    0.9689 	   37.1020 	    0.0000 	   45.0000 	   16.6991
    0.7858 	   37.1835 	    0.0000 	   45.0000 	   16.8621
    0.7858 	   37.2675 	    0.0000 	   45.0000 	   17.0301
    0.8469 	   37.3525 	    0.0000 	   45.0000 	   17.2001
    0.9384 	   37.4370 	    0.0000 	   45.0000 	   17.3691
    0.9995 	   37.5135 	    0.0000 	   45.0000 	   17.5221
    0.8621 	   37.5925 	    0.0000 	   45.0000 	   17.6801
    0.9232 	   37.6740 	    0.0000 	   45.0000 	   17.8431
    0.9842 	   37.7510 	    0.0000 	   45.0000 	   17.9971
    0.9079 	   37.8275 	    0.0000 	   45.0000 	   18.1502
    0.8469 	   37.9145 	    0.0000 	   45.0000 	   18.3242
    0.6943 	   37.9960 	    0.0000 	   45.0000 	   18.4872
    0.9537 	   38.0795 	    0.0000 	   45.0000 	   18.6542
    0.9079 	   38.1580 	    0.0000 	   45.0000 	   18.8112
    0.8774 	   38.2355 	    0.0000 	   45.0000 	   18.9662
    0.9842 	   38.3150 	    0.0000 	   45.0000 	   19.1252
    0.9384 	   38.3975 	    0.0000 	   45.0000 	   19.2902
    1.0758 	   38.4745 	    0.0000 	   45.0000 	   19.4442
    0.8316 	   38.5515 	    0.0000 	   45.0000 	   19.5982
    0.8011 	   38.6315 	    0.0000 	   45.0000 	   19.7582
    0.8011 	   38.7110 	    0.0000 	   45.0000 	   19.9173
    0.8927 	   38.7975 	    0.0000 	   45.0000 	   20.0903
    0.8774 	   38.8830 	    0.0000 	   45.0000 	   20.2613
    1.0300 	   38.9680 	    0.0000 	   45.0000 	   20.4313
    0.8774 	   39.0550 	    0.0000 	   45.0000 	   20.6053
    0.8774 	   39.1350 	    0.0000 	   45.0000 	   20.7653
    0.9995 	   39.2175 	    0.0000 	   45.0000 	   20.9303
    0.8621 	   39.2980 	    0.0000 	   45.0000 	   21.0913
    1.0300 	   39.3760 	    0.0000 	   45.0000 	   21.2473
    0.9995 	   39.4545 	    0.0000 	   45.0000 	   21.4043
    0.9537 	   39.5335 	    0.0000 	   45.0000 	   21.5623
    1.0147 	   39.6115 	    0.0000 	   45.0000 	   21.7184
    0.9995 	   39.6900 	    0.0000 	   45.0000 	   21.8754
    0.8469 	   39.7670 	    0.0000 	   45.0000 	   22.0294
    1.0910 	   39.8445 	    0.0000 	   45.0000 	   22.1844
    1.0605 	   39.9285 	    0.0000 	   45.0000 	   22.3524
    0.9232 	   40.0155 	    0.0000 	   45.0000 	   22.5264
    0.9384 	   40.0965 	    0.0000 	   45.0000 	   22.6884
    0.9842 	   40.1745 	    0.0000 	   45.0000 	   22.8444
    0.9689 	   40.2570 	    0.0000 	   45.0000 	   23.0094
    0.8011 	   40.3360 	    0.0000 	   45.0000 	   23.1674
    1.0758 	   40.4195 	    0.0000 	   45.0000 	   23.3344
    1.0300 	   40.5075 	    0.0000 	   45.0000 	   23.5105
    0.6027 	   40.5930 	    0.0000 	   45.0000 	   23.6815
    0.9842 	   40.6810 	    0.0000 	   45.0000 	   23.8575
    0.7095 	   40.7675 	    0.0000 	   45.0000 	   24.0305
    0.8774 	   40.8550 	    0.0000 	   45.0000 	   24.2055
    0.9995 	   40.9415 	    0.0000 	   45.0000 	   24.3785
    0.9995 	   41.0235 	    0.0000 	   45.0000 	   24.5425
    0.9384 	   41.1075 	    0.0000 	   45.0000 	   24.7105
    1.0147 	   41.1855 	    0.0000 	   45.0000 	   24.8655
    0.9079 	   41.2710 	    0.0000 	   45.0000 	   25.0375
    0.9995 	   41.3580 	    0.0000 	   45.0000 	   25.2116
    1.0147 	   41.4445 	    0.0000 	   45.0000 	   25.3846
    1.0147 	   41.5305 	    0.0000 	   45.0000 	   25.5566
    0.9842 	   41.6150 	    0.0000 	   45.0000 	   25.7256
    0.9232 	   41.6950 	    0.0000 	   45.0000 	   25.8856
    0.7858 	   41.7745 	    0.0000 	   45.0000 	   26.0446
    1.0300 	   41.8530 	    0.0000 	   45.0000 	   26.2016
    1.0147 	   41.9320 	    0.0000 	   45.0000 	   26.3596
    0.9995 	   42.0115 	    0.0000 	   45.0000 	   26.5186
    0.9384 	   42.0930 	    0.0000 	   45.0000 	   26.6816
    0.8774 	   42.1720 	    0.0000 	   45.0000 	   26.8396
    0.9995 	   42.2590 	    0.0000 	   45.0000 	   27.0137
    1.0910 	   42.3435 	    0.0000 	   45.0000 	   27.1827
    0.7401 	   42.4305 	    0.0000 	   45.0000 	   27.3567
    1.1063 	   42.5135 	    0.0000 	   45.0000 	   27.5227
    1.0758 	   42.5980 	    0.0000 	   45.0000 	   27.6917
    1.0605 	   42.6790 	    0.0000 	   45.0000 	   27.8537
    1.0452 	   42.7605 	    0.0000 	   45.0000 	   28.0167
    0.9537 	   42.8430 	    0.0000 	   45.0000 	   28.1817
    0.9232 	   42.9225 	    0.0000 	   45.0000 	   28.3407
    1.0605 	   43.0085 	    0.0000 	   45.0000 	   28.5127
    1.1368 	   43.0905 	    0.0000 	   45.0000 	   28.6768
    1.1215 	   43.1765 	    0.0000 	   45.0000 	   28.8488
    1.1673 	   43.2625 	    0.0000 	   45.0000 	   29.0208
    0.9995 	   43.3515 	    0.0000 	   45.0000 	   29.1988
    1.0147 	   43.4360 	    0.0000 	   45.0000 	   29.3678
    1.1063 	   43.5245 	    0.0000 	   45.0000 	   29.5448
    0.9537 	   43.6120 	    0.0000 	   45.0000 	   29.7198
    0.9842 	   43.7015 	    0.0000 	   45.0000 	   29.8988
    1.0605 	   43.7910 	    0.0000 	   45.0000 	   30.0778
    1.1215 	   43.8820 	    0.0000 	   45.0000 	   30.2598
    1.0300 	   43.9710 	    0.0000 	   45.0000 	   30.4379
    1.1673 	   44.0635 	    0.0000 	   45.0000 	   30.6229
    0.9842 	   44.1545 	    0.0000 	   45.0000 	   30.8049
    1.2131 	   44.2450 	    0.0000 	   45.0000 	   30.9859
    1.1215 	   44.3335 	    0.0000 	   45.0000 	   31.1629
    0.9995 	   44.4245 	    0.0000 	   45.0000 	   31.3449
    1.1063 	   44.5085 	    0.0000 	   45.0000 	   31.5129
    0.9689 	   44.5895 	    0.0000 	   45.0000 	   31.6739
    1.0452 	   44.6700 	    0.0000 	   45.0000 	   31.8359
    1.0910 	   44.7505 	    0.0000 	   45.0000 	   31.9969
    1.0300 	   44.8315 	    0.0000 	   45.0000 	   32.1590
    1.1521 	   44.9195 	    0.0000 	   45.0000 	   32.3350
    1.1826 	   45.0085 	    0.0000 	   45.0000 	   32.5130
    0.9537 	   45.0980 	    0.0000 	   45.0000 	   32.6920
    1.1063 	   45.1880 	    0.0000 	   45.0000 	   32.8720
    0.9232 	   45.2770 	    0.0000 	   45.0000 	   33.0500
    0.9842 	   45.3680 	    0.0000 	   45.0000 	   33.2310
    0.9079 	   45.4595 	    0.0000 	   45.0000 	   33.4140
    1.0300 	   45.5510 	    0.0000 	   45.0000 	   33.5970
    0.8164 	   45.6385 	    0.0000 	   45.0000 	   33.7720
    1.0452 	   45.7270 	    0.0000 	   45.0000 	   33.9491
    1.1063 	   45.8155 	    0.0000 	   45.0000 	   34.1261
    1.0452 	   45.9060 	    0.0000 	   45.0000 	   34.3071
    0.9537 	   45.9940 	    0.0000 	   45.0000 	   34.4831
    1.0605 	   46.0845 	    0.0000 	   45.0000 	   34.6641
    1.0910 	   46.1745 	    0.0000 	   45.0000 	   34.8441
    1.0452 	   46.2630 	    0.0000 	   45.0000 	   35.0211
    1.1215 	   46.3535 	    0.0000 	   45.0000 	   35.2021
    1.0300 	   46.4435 	    0.0000 	   45.0000 	   35.3821
    1.1978 	   46.5335 	    0.0000 	   45.0000 	   35.5621
    0.9384 	   46.6235 	    0.0000 	   45.0000 	   35.7422
    0.9537 	   46.7145 	    0.0000 	   45.0000 	   35.9242
    1.0452 	   46.8040 	    0.0000 	   45.0000 	   36.1032
    0.9842 	   46.8945 	    0.0000 	   45.0000 	   36.2842
    1.1063 	   46.9795 	    0.0000 	   45.0000 	   36.4542
    1.1063 	   47.0635 	    0.0000 	   45.0000 	   36.6222
    1.0300 	   47.1470 	    0.0000 	   45.0000 	   36.7892
    0.8774 	   47.2315 	    0.0000 	   45.0000 	   36.9582
    0.9995 	   47.3185 	    0.0000 	   45.0000 	   37.1322
    1.2284 	   47.4095 	    0.0000 	   45.0000 	   37.3142
    1.1368 	   47.4940 	    0.0000 	   45.0000 	   37.4833
    1.0300 	   47.5815 	    0.0000 	   45.0000 	   37.6583
    1.0300 	   47.6730 	    0.0000 	   45.0000 	   37.8413
    1.0452 	   47.7640 	    0.0000 	   45.0000 	   38.0233
    1.1521 	   47.8540 	    0.0000 	   45.0000 	   38.2033
    1.1215 	   47.9405 	    0.0000 	   45.0000 	   38.3763
    1.0147 	   48.0235 	    0.0000 	   45.0000 	   38.5423
    1.1978 	   48.1100 	    0.0000 	   45.0000 	   38.7153
    1.1215 	   48.1930 	    0.0000 	   45.0000 	   38.8813
    1.2894 	   48.2755 	    0.0000 	   45.0000 	   39.0463
    1.0605 	   48.3585 	    0.0000 	   45.0000 	   39.2124
    1.1978 	   48.4490 	    0.0000 	   45.0000 	   39.3934
    1.0758 	   48.5415 	    0.0000 	   45.0000 	   39.5784
    0.9537 	   48.6295 	    0.0000 	   45.0000 	   39.7544
    0.9689 	   48.7210 	    0.0000 	   45.0000 	   39.9374
    1.1368 	   48.8105 	    0.0000 	   45.0000 	   40.1164
    1.1215 	   48.8940 	    0.0000 	   45.0000 	   40.2834
    1.0300 	   48.9765 	    0.0000 	   45.0000 	   40.4484
    1.1368 	   49.0685 	    0.0000 	   45.0000 	   40.6324
    1.0910 	   49.1610 	    0.0000 	   45.0000 	   40.8174
    1.1063 	   49.2560 	    0.0000 	   45.0000 	   41.0075
    1.1368 	   49.3440 	    0.0000 	   45.0000 	   41.1835
    1.1368 	   49.4370 	    0.0000 	   45.0000 	   41.3695
    1.2284 	   49.5260 	    0.0000 	   45.0000 	   41.5475
    1.2436 	   49.6155 	    0.0000 	   45.0000 	   41.7265
    1.1063 	   49.7055 	    0.0000 	   45.0000 	   41.9065
    1.2131 	   49.7990 	    0.0000 	   45.0000 	   42.0935
    1.0758 	   49.8850 	    0.0000 	   45.0000 	   42.2655
    1.1063 	   49.9675 	    0.0000 	   45.0000 	   42.4305
    1.0758 	   50.0530 	    0.0000 	   45.0000 	   42.6015
    1.2284 	   50.1450 	    0.0000 	   45.0000 	   42.7856
    1.0605 	   50.2320 	    0.0000 	   45.0000 	   42.9596
    1.2131 	   50.3175 	    0.0000 	   45.0000 	   43.1306
    1.1826 	   50.4045 	    0.0000 	   45.0000 	   43.3046
    1.1063 	   50.4945 	    0.0000 	   45.0000 	   43.4846
    1.1063 	   50.5860 	    0.0000 	   45.0000 	   43.6676
    1.0300 	   50.6755 	    0.0000 	   45.0000 	   43.8466
    0.8621 	   50.7670 	    0.0000 	   45.0000 	   44.0296
    1.0758 	   50.8590 	    0.0000 	   45.0000 	   44.2136
    0.9842 	   50.9505 	    0.0000 	   45.0000 	   44.3967
    0.9384 	   51.0405 	    0.0000 	   45.0000 	   44.5767
    0.9689 	   51.1295 	    0.0000 	   45.0000 	   44.7547
    1.0910 	   51.2160 	    0.0000 	   45.0000 	   44.9277
    1.0452 	   51.3060 	    0.0000 	   45.0000 	   45.1077
    1.1215 	   51.3880 	    0.0000 	   45.0000 	   45.2717
    1.0758 	   51.4765 	    0.0000 	   45.0000 	   45.4487
    1.1978 	   51.5695 	    0.0000 	   45.0000 	   45.6347
    1.1215 	   51.6585 	    0.0000 	   45.0000 	   45.8127
    1.1215 	   51.7530 	    0.0000 	   45.0000 	   46.0017
    1.1215 	   51.8425 	    0.0000 	   45.0000 	   46.1808
    1.2589 	   51.9265 	    0.0000 	   45.0000 	   46.3488
    1.3199 	   52.0165 	    0.0000 	   45.0000 	   46.5288
    1.1673 	   52.1100 	    0.0000 	   45.0000 	   46.7158
    1.0758 	   52.2020 	    0.0000 	   45.0000 	   46.8998
    1.1368 	   52.2925 	    0.0000 	   45.0000 	   47.0808
    1.1063 	   52.3835 	    0.0000 	   45.0000 	   47.2628
    1.1673 	   52.4740 	    0.0000 	   45.0000 	   47.4438
    1.1521 	   52.5660 	    0.0000 	   45.0000 	   47.6278
    1.0452 	   52.6545 	    0.0000 	   45.0000 	   47.8048
    1.1673 	   52.7455 	    0.0000 	   45.0000 	   47.9869
    1.1673 	   52.8345 	    0.0000 	   45.0000 	   48.1649
    1.2589 	   52.9270 	    0.0000 	   45.0000 	   48.3499
    1.0758 	   53.0165 	    0.0000 	   45.0000 	   48.5289
    1.1368 	   53.1105 	    0.0000 	   45.0000 	   48.7169
    1.0452 	   53.2015 	    0.0000 	   45.0000 	   48.8989
    1.1368 	   53.2940 	    0.0000 	   45.0000 	   49.0839
    1.1368 	   53.3860 	    0.0000 	   45.0000 	   49.2679
    1.0300 	   53.4775 	    0.0000 	   45.0000 	   49.4509
    1.1063 	   53.5695 	    0.0000 	   45.0000 	   49.6350
    1.1368 	   53.6585 	    0.0000 	   45.0000 	   49.8130
    1.0300 	   53.7445 	    0.0000 	   45.0000 	   49.9850
    1.1215 	   53.8275 	    0.0000 	   45.0000 	   50.1510
    1.2589 	   53.9120 	    0.0000 	   45.0000 	   50.3200
    1.3657 	   53.9950 	    0.0000 	   45.0000 	   50.4860
    1.1063 	   54.0825 	    0.0000 	   45.0000 	   50.6600
    1.2436 	   54.1670 	    0.0000 	   45.0000 	   50.8290
    1.3046 	   54.2580 	    0.0000 	   45.0000 	   51.0110
    1.2589 	   54.3420 	    0.0000 	   45.0000 	   51.1790
    1.1215 	   54.4255 	    0.0000 	   45.0000 	   51.3461
    1.0758 	   54.5095 	    0.0000 	   45.0000 	   51.5141
    1.0147 	   54.5930 	    0.0000 	   45.0000 	   51.6811
    1.1063 	   54.6770 	    0.0000 	   45.0000 	   51.8491
    1.1215 	   54.7620 	    0.0000 	   45.0000 	   52.0191
    1.1826 	   54.8460 	    0.0000 	   45.0000 	   52.1871
    1.1215 	   54.9360 	    0.0000 	   45.0000 	   52.3671
    1.0758 	   55.0290 	    0.0000 	   45.0000 	   52.5531
    1.1978 	   55.1235 	    0.0000 	   45.0000 	   52.7421
    1.3046 	   55.2110 	    0.0000 	   45.0000 	   52.9171
    1.1673 	   55.2965 	    0.0000 	   45.0000 	   53.0882
    1.1368 	   55.3835 	    0.0000 	   45.0000 	   53.2622
    1.1521 	   55.4675 	    0.0000 	   45.0000 	   53.4302
    1.1063 	   55.5515 	    0.0000 	   45.0000 	   53.5982
    1.0910 	   55.6390 	    0.0000 	   45.0000 	   53.7732
    1.1215 	   55.7250 	    0.0000 	   45.0000 	   53.9452
    1.4420 	   55.8095 	    0.0000 	   45.0000 	   54.1142
    1.1368 	   55.8985 	    0.0000 	   45.0000 	   54.2922
    1.1826 	   55.9825 	    0.0000 	   45.0000 	   54.4602
    1.1978 	   56.0685 	    0.0000 	   45.0000 	   54.6322
    1.1063 	   56.1515 	    0.0000 	   45.0000 	   54.7982
    1.2284 	   56.2360 	    0.0000 	   45.0000 	   54.9673
    1.1368 	   56.3210 	    0.0000 	   45.0000 	   55.1373
    1.1063 	   56.4060 	    0.0000 	   45.0000 	   55.3073
    1.1215 	   56.4905 	    0.0000 	   45.0000 	   55.4763
    1.1673 	   56.5815 	    0.0000 	   45.0000 	   55.6583
    1.1673 	   56.6675 	    0.0000 	   45.0000 	   55.8303
    1.1826 	   56.7530 	    0.0000 	   45.0000 	   56.0013
    1.0910 	   56.8370 	    0.0000 	   45.0000 	   56.1693
    1.2894 	   56.9300 	    0.0000 	   45.0000 	   56.3553
    1.2284 	   57.0205 	    0.0000 	   45.0000 	   56.5363
    1.1673 	   57.1050 	    0.0000 	   45.0000 	   56.7054
    1.1673 	   57.1935 	    0.0000 	   45.0000 	   56.8824
    1.0910 	   57.2865 	    0.0000 	   45.0000 	   57.0684
    1.3504 	   57.3735 	    0.0000 	   45.0000 	   57.2424
    1.1673 	   57.4595 	    0.0000 	   45.0000 	   57.4144
    1.1673 	   57.5445 	    0.0000 	   45.0000 	   57.5844
    1.1368 	   57.6290 	    0.0000 	   45.0000 	   57.7534
    1.1215 	   57.7140 	    0.0000 	   45.0000 	   57.9234
    1.1521 	   57.7985 	    0.0000 	   45.0000 	   58.0924
    1.1673 	   57.8855 	    0.0000 	   45.0000 	   58.2664
    1.1673 	   57.9795 	    0.0000 	   45.0000 	   58.4545
    1.4115 	   58.0755 	    0.0000 	   45.0000 	   58.6465
    1.2131 	   58.1625 	    0.0000 	   45.0000 	   58.8205
    1.2589 	   58.2480 	    0.0000 	   45.0000 	   58.9915
    1.2131 	   58.3325 	    0.0000 	   45.0000 	   59.1605
    1.2131 	   58.4170 	    0.0000 	   45.0000 	   59.3295
    1.3962 	   58.5035 	    0.0000 	   45.0000 	   59.5025
    1.2284 	   58.5880 	    0.0000 	   45.0000 	   59.6715
    1.2589 	   58.6780 	    0.0000 	   45.0000 	   59.8515
    1.2589 	   58.7675 	    0.0000 	   46.0000 	    0.0305
    1.3809 	   58.8535 	    0.0000 	   46.0000 	    0.2026
    1.0758 	   58.9380 	    0.0000 	   46.0000 	    0.3716
    1.1826 	   59.0285 	    0.0000 	   46.0000 	    0.5526
    1.1215 	   59.1185 	    0.0000 	   46.0000 	    0.7326
    1.2284 	   59.2130 	    0.0000 	   46.0000 	    0.9216
    1.2894 	   59.3085 	    0.0000 	   46.0000 	    1.1126
    1.1978 	   59.4040 	    0.0000 	   46.0000 	    1.3036
    1.2741 	   59.4995 	    0.0000 	   46.0000 	    1.4946
    1.2589 	   59.5865 	    0.0000 	   46.0000 	    1.6686
    1.1673 	   59.6725 	    0.0000 	   46.0000 	    1.8406
    1.1826 	   59.7640 	    0.0000 	   46.0000 	    2.0237
    0.9232 	   59.8535 	    0.0000 	   46.0000 	    2.2027
    1.2284 	   59.9490 	    0.0000 	   46.0000 	    2.3937
    1.2131 	   59.9735 	    0.0000 	   46.0000 	    2.4427