File: instron/deadline/bak/size/blue_15_1_new/blue_15_1_60_120.txt
Thayer School of Engineering        Instron 4442 Mechanical Testing System
7/9/2018 3:11:25 AM

  Force (N)	Extension (mm)	Not Used	Not Used	Not Used	     Hour	    Minute	    Second
    0.6638 	    2.0560 	    3.0000 	   11.0000 	   56.6584
    0.7401 	    2.3800 	    3.0000 	   11.0000 	   56.8204
    0.7706 	    2.7040 	    3.0000 	   11.0000 	   56.9824
    0.8011 	    3.0020 	    3.0000 	   11.0000 	   57.1314
    0.8621 	    3.3200 	    3.0000 	   11.0000 	   57.2904
    0.9842 	    3.6220 	    3.0000 	   11.0000 	   57.4414
    1.0758 	    3.9380 	    3.0000 	   11.0000 	   57.5994
    0.9079 	    4.2440 	    3.0000 	   11.0000 	   57.7525
    0.9079 	    4.5560 	    3.0000 	   11.0000 	   57.9085
    1.0758 	    4.8900 	    3.0000 	   11.0000 	   58.0755
    0.9995 	    5.2200 	    3.0000 	   11.0000 	   58.2405
    1.0452 	    5.5440 	    3.0000 	   11.0000 	   58.4025
    1.0147 	    5.8660 	    3.0000 	   11.0000 	   58.5635
    0.9384 	    6.0980 	    3.0000 	   11.0000 	   58.6795
    1.0452 	    6.4320 	    3.0000 	   11.0000 	   58.8465
    1.1978 	    6.6060 	    3.0000 	   11.0000 	   58.9335
    1.0910 	    6.8780 	    3.0000 	   11.0000 	   59.0695
    1.1521 	    7.0440 	    3.0000 	   11.0000 	   59.1525
    1.2131 	    7.2820 	    3.0000 	   11.0000 	   59.2715
    1.1673 	    7.4740 	    3.0000 	   11.0000 	   59.3675
    1.2741 	    7.6620 	    3.0000 	   11.0000 	   59.4616
    1.2894 	    7.8520 	    3.0000 	   11.0000 	   59.5566
    1.1521 	    8.0560 	    3.0000 	   11.0000 	   59.6586
    1.1673 	    8.2560 	    3.0000 	   11.0000 	   59.7586
    1.1826 	    8.4540 	    3.0000 	   11.0000 	   59.8576
    1.1521 	    8.6340 	    3.0000 	   11.0000 	   59.9476
    1.2284 	    8.7960 	    3.0000 	   12.0000 	    0.0286
    1.2284 	    8.9560 	    3.0000 	   12.0000 	    0.1086
    1.2436 	    9.1260 	    3.0000 	   12.0000 	    0.1936
    1.2589 	    9.3180 	    3.0000 	   12.0000 	    0.2896
    1.1215 	    9.5180 	    3.0000 	   12.0000 	    0.3896
    1.1215 	    9.7180 	    3.0000 	   12.0000 	    0.4896
    1.2894 	    9.9180 	    3.0000 	   12.0000 	    0.5896
    1.4115 	   10.1160 	    3.0000 	   12.0000 	    0.6886
    1.3352 	   10.3020 	    3.0000 	   12.0000 	    0.7816
    1.2894 	   10.4620 	    3.0000 	   12.0000 	    0.8616
    1.2284 	   10.6300 	    3.0000 	   12.0000 	    0.9456
    1.4572 	   10.7940 	    3.0000 	   12.0000 	    1.0276
    1.2894 	   10.9560 	    3.0000 	   12.0000 	    1.1087
    1.6098 	   11.1300 	    3.0000 	   12.0000 	    1.1957
    1.3809 	   11.3140 	    3.0000 	   12.0000 	    1.2877
    1.3046 	   11.5000 	    3.0000 	   12.0000 	    1.3807
    1.3504 	   11.6820 	    3.0000 	   12.0000 	    1.4717
    1.3657 	   11.8820 	    3.0000 	   12.0000 	    1.5717
    1.1521 	   12.0820 	    3.0000 	   12.0000 	    1.6717
    1.0452 	   12.2740 	    3.0000 	   12.0000 	    1.7677
    1.5335 	   12.4560 	    3.0000 	   12.0000 	    1.8587
    1.4878 	   12.6300 	    3.0000 	   12.0000 	    1.9457
    1.4878 	   12.7980 	    3.0000 	   12.0000 	    2.0287
    1.4420 	   12.9560 	    3.0000 	   12.0000 	    2.1087
    1.3809 	   13.1300 	    3.0000 	   12.0000 	    2.1957
    1.1978 	   13.3120 	    3.0000 	   12.0000 	    2.2867
    1.5183 	   13.4940 	    3.0000 	   12.0000 	    2.3777
    1.6861 	   13.6780 	    3.0000 	   12.0000 	    2.4697
    1.5640 	   13.8760 	    3.0000 	   12.0000 	    2.5687
    1.5030 	   14.0620 	    3.0000 	   12.0000 	    2.6617
    1.5183 	   14.2540 	    3.0000 	   12.0000 	    2.7577
    1.4878 	   14.4520 	    3.0000 	   12.0000 	    2.8568
    1.4420 	   14.6360 	    3.0000 	   12.0000 	    2.9488
    1.5335 	   14.7960 	    3.0000 	   12.0000 	    3.0288
    1.4878 	   14.9580 	    3.0000 	   12.0000 	    3.1098
    1.4878 	   15.1360 	    3.0000 	   12.0000 	    3.1988
    1.5793 	   15.3160 	    3.0000 	   12.0000 	    3.2888
    1.4115 	   15.5140 	    3.0000 	   12.0000 	    3.3878
    1.2894 	   15.7080 	    3.0000 	   12.0000 	    3.4848
    1.6098 	   15.8980 	    3.0000 	   12.0000 	    3.5798
    1.5640 	   16.0940 	    3.0000 	   12.0000 	    3.6778
    1.6251 	   16.2840 	    3.0000 	   12.0000 	    3.7728
    1.7472 	   16.4780 	    3.0000 	   12.0000 	    3.8698
    1.5946 	   16.6520 	    3.0000 	   12.0000 	    3.9568
    1.5640 	   16.8160 	    3.0000 	   12.0000 	    4.0388
    1.6556 	   16.9780 	    3.0000 	   12.0000 	    4.1198
    1.6861 	   17.1500 	    3.0000 	   12.0000 	    4.2058
    1.5793 	   17.3500 	    3.0000 	   12.0000 	    4.3058
    1.6251 	   17.5540 	    3.0000 	   12.0000 	    4.4078
    1.6556 	   17.7460 	    3.0000 	   12.0000 	    4.5038
    1.5640 	   17.9340 	    3.0000 	   12.0000 	    4.5979
    1.6403 	   18.1180 	    3.0000 	   12.0000 	    4.6899
    1.6556 	   18.3120 	    3.0000 	   12.0000 	    4.7869
    1.6251 	   18.5040 	    3.0000 	   12.0000 	    4.8829
    1.7777 	   18.6860 	    3.0000 	   12.0000 	    4.9739
    1.7166 	   18.8480 	    3.0000 	   12.0000 	    5.0549
    1.7166 	   19.0260 	    3.0000 	   12.0000 	    5.1439
    1.8692 	   19.1980 	    3.0000 	   12.0000 	    5.2299
    1.6556 	   19.3720 	    3.0000 	   12.0000 	    5.3169
    1.7472 	   19.5500 	    3.0000 	   12.0000 	    5.4059
    1.8997 	   19.7460 	    3.0000 	   12.0000 	    5.5039
    1.7624 	   19.9300 	    3.0000 	   12.0000 	    5.5959
    1.8387 	   20.1140 	    3.0000 	   12.0000 	    5.6879
    1.7777 	   20.2980 	    3.0000 	   12.0000 	    5.7799
    1.9303 	   20.4820 	    3.0000 	   12.0000 	    5.8719
    1.7624 	   20.6600 	    3.0000 	   12.0000 	    5.9609
    1.7472 	   20.8260 	    3.0000 	   12.0000 	    6.0439
    1.8692 	   20.9840 	    3.0000 	   12.0000 	    6.1229
    1.7319 	   21.1480 	    3.0000 	   12.0000 	    6.2049
    1.8387 	   21.3120 	    3.0000 	   12.0000 	    6.2869
    1.8387 	   21.4780 	    3.0000 	   12.0000 	    6.3700
    1.7929 	   21.6580 	    3.0000 	   12.0000 	    6.4600
    1.9455 	   21.8480 	    3.0000 	   12.0000 	    6.5550
    1.5946 	   22.0340 	    3.0000 	   12.0000 	    6.6480
    1.8235 	   22.2060 	    3.0000 	   12.0000 	    6.7340
    1.8692 	   22.3840 	    3.0000 	   12.0000 	    6.8230
    1.9913 	   22.5640 	    3.0000 	   12.0000 	    6.9130
    1.9913 	   22.7440 	    3.0000 	   12.0000 	    7.0030
    2.0371 	   22.9120 	    3.0000 	   12.0000 	    7.0870
    1.8692 	   23.0700 	    3.0000 	   12.0000 	    7.1660
    2.0066 	   23.2620 	    3.0000 	   12.0000 	    7.2620
    2.1744 	   23.4500 	    3.0000 	   12.0000 	    7.3560
    1.9455 	   23.6540 	    3.0000 	   12.0000 	    7.4570
    1.8845 	   23.8500 	    3.0000 	   12.0000 	    7.5550
    2.1439 	   24.0360 	    3.0000 	   12.0000 	    7.6480
    2.0218 	   24.2300 	    3.0000 	   12.0000 	    7.7450
    1.9760 	   24.4220 	    3.0000 	   12.0000 	    7.8410
    1.9913 	   24.6080 	    3.0000 	   12.0000 	    7.9340
    2.0523 	   24.7800 	    3.0000 	   12.0000 	    8.0200
    2.1439 	   24.9460 	    3.0000 	   12.0000 	    8.1031
    2.1286 	   25.1160 	    3.0000 	   12.0000 	    8.1881
    2.0066 	   25.3000 	    3.0000 	   12.0000 	    8.2801
    2.0218 	   25.4920 	    3.0000 	   12.0000 	    8.3761
    1.8082 	   25.7440 	    3.0000 	   12.0000 	    8.5021
    2.1897 	   25.9300 	    3.0000 	   12.0000 	    8.5941
    2.0981 	   26.1180 	    3.0000 	   12.0000 	    8.6891
    2.0371 	   26.3160 	    3.0000 	   12.0000 	    8.7881
    2.1897 	   26.5040 	    3.0000 	   12.0000 	    8.8821
    2.1134 	   26.6820 	    3.0000 	   12.0000 	    8.9711
    2.0829 	   26.8460 	    3.0000 	   12.0000 	    9.0531
    2.3270 	   27.0080 	    3.0000 	   12.0000 	    9.1341
    2.2507 	   27.1840 	    3.0000 	   12.0000 	    9.2221
    2.2507 	   27.3720 	    3.0000 	   12.0000 	    9.3161
    2.3880 	   27.5580 	    3.0000 	   12.0000 	    9.4091
    2.1592 	   27.7540 	    3.0000 	   12.0000 	    9.5071
    2.1134 	   27.9380 	    3.0000 	   12.0000 	    9.5991
    2.0829 	   28.1360 	    3.0000 	   12.0000 	    9.6981
    2.1592 	   28.3300 	    3.0000 	   12.0000 	    9.7951
    2.2507 	   28.5200 	    3.0000 	   12.0000 	    9.8902
    2.1592 	   28.7080 	    3.0000 	   12.0000 	    9.9842
    2.3575 	   28.8780 	    3.0000 	   12.0000 	   10.0692
    2.2965 	   29.0440 	    3.0000 	   12.0000 	   10.1522
    2.2965 	   29.2300 	    3.0000 	   12.0000 	   10.2452
    2.4186 	   29.4160 	    3.0000 	   12.0000 	   10.3382
    2.5101 	   29.6120 	    3.0000 	   12.0000 	   10.4362
    2.3270 	   29.8220 	    3.0000 	   12.0000 	   10.5412
    2.3117 	   30.0140 	    3.0000 	   12.0000 	   10.6372
    2.4948 	   30.2100 	    3.0000 	   12.0000 	   10.7352
    2.4491 	   30.4000 	    3.0000 	   12.0000 	   10.8302
    2.3728 	   30.5840 	    3.0000 	   12.0000 	   10.9222
    2.4491 	   30.7720 	    3.0000 	   12.0000 	   11.0162
    2.3880 	   30.9420 	    3.0000 	   12.0000 	   11.1012
    2.2660 	   31.1100 	    3.0000 	   12.0000 	   11.1852
    2.4796 	   31.2940 	    3.0000 	   12.0000 	   11.2772
    2.3880 	   31.4820 	    3.0000 	   12.0000 	   11.3712
    2.4491 	   31.6840 	    3.0000 	   12.0000 	   11.4722
    2.5711 	   31.8780 	    3.0000 	   12.0000 	   11.5692
    2.5559 	   32.0700 	    3.0000 	   12.0000 	   11.6653
    2.5101 	   32.2640 	    3.0000 	   12.0000 	   11.7623
    2.5559 	   32.4520 	    3.0000 	   12.0000 	   11.8563
    2.4948 	   32.6500 	    3.0000 	   12.0000 	   11.9553
    2.5101 	   32.8300 	    3.0000 	   12.0000 	   12.0453
    2.7085 	   32.9940 	    3.0000 	   12.0000 	   12.1273
    2.6169 	   33.1640 	    3.0000 	   12.0000 	   12.2123
    2.4948 	   33.3320 	    3.0000 	   12.0000 	   12.2963
    2.4491 	   33.5080 	    3.0000 	   12.0000 	   12.3843
    2.5559 	   33.7040 	    3.0000 	   12.0000 	   12.4823
    2.5559 	   33.8940 	    3.0000 	   12.0000 	   12.5773
    2.6932 	   34.0820 	    3.0000 	   12.0000 	   12.6713
    2.6932 	   34.3480 	    3.0000 	   12.0000 	   12.8043
    2.5711 	   34.5400 	    3.0000 	   12.0000 	   12.9003
    2.6627 	   34.7280 	    3.0000 	   12.0000 	   12.9943
    2.6322 	   34.9000 	    3.0000 	   12.0000 	   13.0803
    2.6474 	   35.0660 	    3.0000 	   12.0000 	   13.1633
    2.8305 	   35.2600 	    3.0000 	   12.0000 	   13.2603
    2.6780 	   35.4520 	    3.0000 	   12.0000 	   13.3564
    2.7085 	   35.6500 	    3.0000 	   12.0000 	   13.4554
    2.6627 	   35.8480 	    3.0000 	   12.0000 	   13.5544
    2.9068 	   36.0340 	    3.0000 	   12.0000 	   13.6474
    2.7390 	   36.2640 	    3.0000 	   12.0000 	   13.7624
    2.7695 	   36.4360 	    3.0000 	   12.0000 	   13.8484
    2.7543 	   36.6200 	    3.0000 	   12.0000 	   13.9404
    2.8611 	   36.7940 	    3.0000 	   12.0000 	   14.0274
    2.7695 	   36.9620 	    3.0000 	   12.0000 	   14.1114
    2.9068 	   37.1320 	    3.0000 	   12.0000 	   14.1964
    2.8000 	   37.2960 	    3.0000 	   12.0000 	   14.2784
    2.5559 	   37.4700 	    3.0000 	   12.0000 	   14.3654
    2.8153 	   37.6440 	    3.0000 	   12.0000 	   14.4524
    2.8458 	   37.8200 	    3.0000 	   12.0000 	   14.5404
    2.8000 	   38.0140 	    3.0000 	   12.0000 	   14.6374
    2.8153 	   38.2160 	    3.0000 	   12.0000 	   14.7384
    2.9221 	   38.4160 	    3.0000 	   12.0000 	   14.8384
    2.8153 	   38.6120 	    3.0000 	   12.0000 	   14.9364
    2.9526 	   38.7900 	    3.0000 	   12.0000 	   15.0254
    3.0747 	   38.9720 	    3.0000 	   12.0000 	   15.1165
    3.0594 	   39.1580 	    3.0000 	   12.0000 	   15.2095
    2.9068 	   39.3600 	    3.0000 	   12.0000 	   15.3105
    2.8763 	   39.5580 	    3.0000 	   12.0000 	   15.4095
    2.9984 	   39.7520 	    3.0000 	   12.0000 	   15.5065
    3.0747 	   39.9500 	    3.0000 	   12.0000 	   15.6055
    3.1662 	   40.2160 	    3.0000 	   12.0000 	   15.7385
    3.0747 	   40.4120 	    3.0000 	   12.0000 	   15.8365
    3.0747 	   40.6040 	    3.0000 	   12.0000 	   15.9325
    3.1357 	   40.7820 	    3.0000 	   12.0000 	   16.0215
    3.1205 	   40.9540 	    3.0000 	   12.0000 	   16.1075
    3.0900 	   41.1320 	    3.0000 	   12.0000 	   16.1965
    3.0900 	   41.3260 	    3.0000 	   12.0000 	   16.2935
    3.1968 	   41.5260 	    3.0000 	   12.0000 	   16.3935
    3.1662 	   41.7160 	    3.0000 	   12.0000 	   16.4885
    3.2425 	   41.9180 	    3.0000 	   12.0000 	   16.5895
    3.1052 	   42.1120 	    3.0000 	   12.0000 	   16.6865
    3.2273 	   42.3120 	    3.0000 	   12.0000 	   16.7865
    2.8611 	   42.5040 	    3.0000 	   12.0000 	   16.8826
    3.2425 	   42.6920 	    3.0000 	   12.0000 	   16.9766
    3.3036 	   42.8680 	    3.0000 	   12.0000 	   17.0646
    3.3341 	   43.0500 	    3.0000 	   12.0000 	   17.1556
    3.0289 	   43.2460 	    3.0000 	   12.0000 	   17.2536
    3.3494 	   43.4500 	    3.0000 	   12.0000 	   17.3556
    3.3494 	   43.6520 	    3.0000 	   12.0000 	   17.4566
    3.3494 	   43.8500 	    3.0000 	   12.0000 	   17.5556
    3.2273 	   44.0480 	    3.0000 	   12.0000 	   17.6546
    3.0289 	   44.2500 	    3.0000 	   12.0000 	   17.7556
    3.3646 	   44.4520 	    3.0000 	   12.0000 	   17.8566
    3.3799 	   44.6460 	    3.0000 	   12.0000 	   17.9536
    3.2273 	   44.8240 	    3.0000 	   12.0000 	   18.0426
    3.4409 	   44.9960 	    3.0000 	   12.0000 	   18.1286
    3.3494 	   45.1700 	    3.0000 	   12.0000 	   18.2156
    3.4257 	   45.3540 	    3.0000 	   12.0000 	   18.3076
    3.6240 	   45.5520 	    3.0000 	   12.0000 	   18.4066
    3.4867 	   45.7540 	    3.0000 	   12.0000 	   18.5076
    3.4257 	   45.9500 	    3.0000 	   12.0000 	   18.6057
    3.4257 	   46.1560 	    3.0000 	   12.0000 	   18.7087
    3.4257 	   46.3540 	    3.0000 	   12.0000 	   18.8077
    3.4562 	   46.5500 	    3.0000 	   12.0000 	   18.9057
    3.5325 	   46.7320 	    3.0000 	   12.0000 	   18.9967
    3.6088 	   46.9120 	    3.0000 	   12.0000 	   19.0867
    3.6088 	   47.0880 	    3.0000 	   12.0000 	   19.1747
    3.5019 	   47.3380 	    3.0000 	   12.0000 	   19.2997
    3.5172 	   47.5120 	    3.0000 	   12.0000 	   19.3867
    3.4257 	   47.6980 	    3.0000 	   12.0000 	   19.4787
    3.7766 	   47.8940 	    3.0000 	   12.0000 	   19.5777
    3.7308 	   48.0940 	    3.0000 	   12.0000 	   19.6777
    3.7919 	   48.3000 	    3.0000 	   12.0000 	   19.7807
    3.7613 	   48.4900 	    3.0000 	   12.0000 	   19.8757
    3.6545 	   48.6800 	    3.0000 	   12.0000 	   19.9707
    3.7461 	   48.8760 	    3.0000 	   12.0000 	   20.0687
    3.8376 	   49.0520 	    3.0000 	   12.0000 	   20.1567
    3.9597 	   49.2380 	    3.0000 	   12.0000 	   20.2497
    3.7003 	   49.4320 	    3.0000 	   12.0000 	   20.3468
    4.0055 	   49.6300 	    3.0000 	   12.0000 	   20.4458
    3.9597 	   49.8380 	    3.0000 	   12.0000 	   20.5498
    3.9139 	   50.0560 	    3.0000 	   12.0000 	   20.6588
    3.8834 	   50.2500 	    3.0000 	   12.0000 	   20.7558
    3.8682 	   50.4500 	    3.0000 	   12.0000 	   20.8558
    3.9445 	   50.6460 	    3.0000 	   12.0000 	   20.9538
    4.0970 	   50.8260 	    3.0000 	   12.0000 	   21.0438
    4.2039 	   51.0080 	    3.0000 	   12.0000 	   21.1348
    4.1428 	   51.2440 	    3.0000 	   12.0000 	   21.2528
    4.0665 	   51.4300 	    3.0000 	   12.0000 	   21.3458
    4.1123 	   51.6320 	    3.0000 	   12.0000 	   21.4468
    4.0970 	   51.8300 	    3.0000 	   12.0000 	   21.5458
    4.1123 	   52.0280 	    3.0000 	   12.0000 	   21.6448
    4.3107 	   52.2380 	    3.0000 	   12.0000 	   21.7488
    3.8529 	   52.4460 	    3.0000 	   12.0000 	   21.8538
    4.1733 	   52.6500 	    3.0000 	   12.0000 	   21.9558
    4.2191 	   52.8360 	    3.0000 	   12.0000 	   22.0488
    4.3107 	   53.0260 	    3.0000 	   12.0000 	   22.1439
    4.2039 	   53.2080 	    3.0000 	   12.0000 	   22.2349
    4.2954 	   53.3840 	    3.0000 	   12.0000 	   22.3229
    4.4633 	   53.5860 	    3.0000 	   12.0000 	   22.4239
    4.2649 	   53.7820 	    3.0000 	   12.0000 	   22.5219
    4.2649 	   53.9840 	    3.0000 	   12.0000 	   22.6229
    4.2802 	   54.1820 	    3.0000 	   12.0000 	   22.7219
    4.4785 	   54.3840 	    3.0000 	   12.0000 	   22.8229
    4.4480 	   54.5700 	    3.0000 	   12.0000 	   22.9159
    4.6921 	   54.7560 	    3.0000 	   12.0000 	   23.0089
    4.4480 	   54.9420 	    3.0000 	   12.0000 	   23.1019
    4.5853 	   55.1200 	    3.0000 	   12.0000 	   23.1909
    4.6464 	   55.2920 	    3.0000 	   12.0000 	   23.2769
    4.6769 	   55.4720 	    3.0000 	   12.0000 	   23.3669
    4.6311 	   55.6500 	    3.0000 	   12.0000 	   23.4559
    4.6616 	   55.8460 	    3.0000 	   12.0000 	   23.5539
    4.6921 	   56.0460 	    3.0000 	   12.0000 	   23.6539
    4.7379 	   56.2560 	    3.0000 	   12.0000 	   23.7589
    4.6921 	   56.4540 	    3.0000 	   12.0000 	   23.8580
    4.8142 	   56.6520 	    3.0000 	   12.0000 	   23.9570
    4.8447 	   56.8480 	    3.0000 	   12.0000 	   24.0550
    4.7074 	   57.0380 	    3.0000 	   12.0000 	   24.1500
    4.8447 	   57.2300 	    3.0000 	   12.0000 	   24.2460
    5.0278 	   57.4300 	    3.0000 	   12.0000 	   24.3460
    4.9668 	   57.6420 	    3.0000 	   12.0000 	   24.4520
    4.5853 	   57.8500 	    3.0000 	   12.0000 	   24.5560
    5.1194 	   58.0560 	    3.0000 	   12.0000 	   24.6590
    4.9821 	   58.2640 	    3.0000 	   12.0000 	   24.7630
    5.2873 	   58.4600 	    3.0000 	   12.0000 	   24.8600
    5.2110 	   58.6620 	    3.0000 	   12.0000 	   24.9610
    5.1957 	   58.8420 	    3.0000 	   12.0000 	   25.0510
    4.9973 	   59.0180 	    3.0000 	   12.0000 	   25.1390
    5.2110 	   59.1980 	    3.0000 	   12.0000 	   25.2290
    5.3330 	   59.3900 	    3.0000 	   12.0000 	   25.3250
    5.4246 	   59.6000 	    3.0000 	   12.0000 	   25.4300
    5.4398 	   59.8040 	    3.0000 	   12.0000 	   25.5320
    5.4856 	   60.0000 	    3.0000 	   12.0000 	   25.6301
    5.1652 	   60.2200 	    3.0000 	   12.0000 	   25.7401
    4.9516 	   60.4280 	    3.0000 	   12.0000 	   25.8441
    4.8905 	   60.6220 	    3.0000 	   12.0000 	   25.9411
    4.5090 	   60.8120 	    3.0000 	   12.0000 	   26.0361
    4.6464 	   60.9960 	    3.0000 	   12.0000 	   26.1281
    4.6006 	   61.1900 	    3.0000 	   12.0000 	   26.2251
    4.4327 	   61.3860 	    3.0000 	   12.0000 	   26.3231
    4.4022 	   61.5900 	    3.0000 	   12.0000 	   26.4251
    4.3259 	   61.7920 	    3.0000 	   12.0000 	   26.5261
    4.1886 	   61.9940 	    3.0000 	   12.0000 	   26.6271
    4.3412 	   62.1960 	    3.0000 	   12.0000 	   26.7281
    4.0970 	   62.3760 	    3.0000 	   12.0000 	   26.8181
    4.1276 	   62.5720 	    3.0000 	   12.0000 	   26.9161
    3.7919 	   62.7800 	    3.0000 	   12.0000 	   27.0201
    4.0513 	   62.9680 	    3.0000 	   12.0000 	   27.1141
    4.0055 	   63.1560 	    3.0000 	   12.0000 	   27.2081
    3.9292 	   63.3460 	    3.0000 	   12.0000 	   27.3031
    3.9445 	   63.5480 	    3.0000 	   12.0000 	   27.4042
    3.7156 	   63.7580 	    3.0000 	   12.0000 	   27.5092
    3.7613 	   63.9620 	    3.0000 	   12.0000 	   27.6112
    3.6545 	   64.1700 	    3.0000 	   12.0000 	   27.7152
    3.6545 	   64.3640 	    3.0000 	   12.0000 	   27.8122
    3.6698 	   64.5640 	    3.0000 	   12.0000 	   27.9122
    3.6393 	   64.7640 	    3.0000 	   12.0000 	   28.0122
    3.5019 	   64.9480 	    3.0000 	   12.0000 	   28.1042
    3.5172 	   65.1300 	    3.0000 	   12.0000 	   28.1952
    3.4714 	   65.3100 	    3.0000 	   12.0000 	   28.2852
    3.0747 	   65.5000 	    3.0000 	   12.0000 	   28.3802
    3.3494 	   65.6980 	    3.0000 	   12.0000 	   28.4792
    3.3799 	   65.8960 	    3.0000 	   12.0000 	   28.5782
    3.3646 	   66.1200 	    3.0000 	   12.0000 	   28.6902
    3.3646 	   66.3300 	    3.0000 	   12.0000 	   28.7952
    2.9984 	   66.5360 	    3.0000 	   12.0000 	   28.8982
    3.2273 	   66.7300 	    3.0000 	   12.0000 	   28.9952
    3.1968 	   66.9140 	    3.0000 	   12.0000 	   29.0873
    2.8611 	   67.1020 	    3.0000 	   12.0000 	   29.1813
    3.3341 	   67.2780 	    3.0000 	   12.0000 	   29.2693
    2.9984 	   67.4620 	    3.0000 	   12.0000 	   29.3613
    3.0594 	   67.6620 	    3.0000 	   12.0000 	   29.4613
    3.2120 	   67.8680 	    3.0000 	   12.0000 	   29.5643
    3.1205 	   68.0700 	    3.0000 	   12.0000 	   29.6653
    3.2273 	   68.2820 	    3.0000 	   12.0000 	   29.7713
    2.9831 	   68.4880 	    3.0000 	   12.0000 	   29.8743
    2.9221 	   68.6920 	    3.0000 	   12.0000 	   29.9763
    2.9374 	   68.8800 	    3.0000 	   12.0000 	   30.0703
    2.9374 	   69.0680 	    3.0000 	   12.0000 	   30.1643
    2.9679 	   69.2500 	    3.0000 	   12.0000 	   30.2553
    3.0289 	   69.4640 	    3.0000 	   12.0000 	   30.3623
    2.8458 	   69.6680 	    3.0000 	   12.0000 	   30.4643
    3.0594 	   69.8680 	    3.0000 	   12.0000 	   30.5643
    2.8611 	   70.0660 	    3.0000 	   12.0000 	   30.6633
    2.7390 	   70.2700 	    3.0000 	   12.0000 	   30.7653
    2.6017 	   70.4660 	    3.0000 	   12.0000 	   30.8634
    2.4948 	   70.6740 	    3.0000 	   12.0000 	   30.9674
    2.7543 	   70.8680 	    3.0000 	   12.0000 	   31.0644
    2.7848 	   71.0540 	    3.0000 	   12.0000 	   31.1574
    2.7695 	   71.2420 	    3.0000 	   12.0000 	   31.2514
    2.4491 	   71.4460 	    3.0000 	   12.0000 	   31.3534
    2.6322 	   71.6580 	    3.0000 	   12.0000 	   31.4594
    2.5864 	   71.8560 	    3.0000 	   12.0000 	   31.5584
    2.5864 	   72.0600 	    3.0000 	   12.0000 	   31.6604
    2.6322 	   72.2760 	    3.0000 	   12.0000 	   31.7684
    2.6322 	   72.4820 	    3.0000 	   12.0000 	   31.8714
    2.5711 	   72.6940 	    3.0000 	   12.0000 	   31.9774
    2.4491 	   72.8900 	    3.0000 	   12.0000 	   32.0754
    2.4796 	   73.0780 	    3.0000 	   12.0000 	   32.1694
    2.5254 	   73.2660 	    3.0000 	   12.0000 	   32.2634
    2.5254 	   73.4700 	    3.0000 	   12.0000 	   32.3654
    2.5254 	   73.6720 	    3.0000 	   12.0000 	   32.4664
    2.5254 	   73.8840 	    3.0000 	   12.0000 	   32.5724
    2.1897 	   74.1220 	    3.0000 	   12.0000 	   32.6915
    2.4491 	   74.3340 	    3.0000 	   12.0000 	   32.7975
    2.4643 	   74.5380 	    3.0000 	   12.0000 	   32.8995
    2.5101 	   74.7420 	    3.0000 	   12.0000 	   33.0015
    2.4186 	   74.9280 	    3.0000 	   12.0000 	   33.0945
    2.4186 	   75.1120 	    3.0000 	   12.0000 	   33.1865
    2.2812 	   75.2940 	    3.0000 	   12.0000 	   33.2775
    2.2812 	   75.4820 	    3.0000 	   12.0000 	   33.3715
    2.3728 	   75.6880 	    3.0000 	   12.0000 	   33.4745
    2.2965 	   75.8720 	    3.0000 	   12.0000 	   33.5665
    2.3423 	   76.0680 	    3.0000 	   12.0000 	   33.6645
    2.4033 	   76.2800 	    3.0000 	   12.0000 	   33.7705
    2.3423 	   76.4900 	    3.0000 	   12.0000 	   33.8755
    2.4033 	   76.6920 	    3.0000 	   12.0000 	   33.9765
    2.3880 	   76.9000 	    3.0000 	   12.0000 	   34.0805
    2.2202 	   77.0960 	    3.0000 	   12.0000 	   34.1785
    2.0066 	   77.2800 	    3.0000 	   12.0000 	   34.2705
    2.2660 	   77.4640 	    3.0000 	   12.0000 	   34.3626
    2.2202 	   77.6540 	    3.0000 	   12.0000 	   34.4576
    2.0218 	   77.8620 	    3.0000 	   12.0000 	   34.5616
    2.1439 	   78.0720 	    3.0000 	   12.0000 	   34.6666
    2.1897 	   78.2820 	    3.0000 	   12.0000 	   34.7716
    2.1744 	   78.5000 	    3.0000 	   12.0000 	   34.8806
    2.0981 	   78.7080 	    3.0000 	   12.0000 	   34.9846
    2.1286 	   78.9000 	    3.0000 	   12.0000 	   35.0806
    2.2049 	   79.0940 	    3.0000 	   12.0000 	   35.1776
    2.2049 	   79.2780 	    3.0000 	   12.0000 	   35.2696
    2.1439 	   79.4820 	    3.0000 	   12.0000 	   35.3716
    2.0829 	   79.6960 	    3.0000 	   12.0000 	   35.4786
    2.0218 	   79.9060 	    3.0000 	   12.0000 	   35.5836
    2.0981 	   80.0980 	    3.0000 	   12.0000 	   35.6796
    2.0829 	   80.2960 	    3.0000 	   12.0000 	   35.7786
    1.9913 	   80.4880 	    3.0000 	   12.0000 	   35.8746
    1.9150 	   80.6760 	    3.0000 	   12.0000 	   35.9686
    2.0218 	   80.8680 	    3.0000 	   12.0000 	   36.0647
    2.0829 	   81.0580 	    3.0000 	   12.0000 	   36.1597
    1.9303 	   81.2420 	    3.0000 	   12.0000 	   36.2517
    1.6251 	   81.4440 	    3.0000 	   12.0000 	   36.3527
    2.0523 	   81.6560 	    3.0000 	   12.0000 	   36.4587
    1.8082 	   81.8680 	    3.0000 	   12.0000 	   36.5647
    1.7319 	   82.0820 	    3.0000 	   12.0000 	   36.6717
    1.8845 	   82.2920 	    3.0000 	   12.0000 	   36.7767
    1.7166 	   82.4800 	    3.0000 	   12.0000 	   36.8707
    2.0066 	   82.6740 	    3.0000 	   12.0000 	   36.9677
    1.9150 	   82.8680 	    3.0000 	   12.0000 	   37.0647
    1.7929 	   83.0700 	    3.0000 	   12.0000 	   37.1657
    2.0066 	   83.2680 	    3.0000 	   12.0000 	   37.2647
    1.8387 	   83.4520 	    3.0000 	   12.0000 	   37.3567
    1.7472 	   83.6600 	    3.0000 	   12.0000 	   37.4607
    1.8082 	   83.8540 	    3.0000 	   12.0000 	   37.5577
    1.8692 	   84.0480 	    3.0000 	   12.0000 	   37.6547
    1.7319 	   84.2480 	    3.0000 	   12.0000 	   37.7547
    1.8235 	   84.4620 	    3.0000 	   12.0000 	   37.8618
    1.9455 	   84.6640 	    3.0000 	   12.0000 	   37.9628
    1.6556 	   84.8500 	    3.0000 	   12.0000 	   38.0558
    1.7777 	   85.0420 	    3.0000 	   12.0000 	   38.1518
    1.7624 	   85.2360 	    3.0000 	   12.0000 	   38.2488
    1.7166 	   85.4340 	    3.0000 	   12.0000 	   38.3478
    1.6709 	   85.6520 	    3.0000 	   12.0000 	   38.4568
    1.6098 	   85.8680 	    3.0000 	   12.0000 	   38.5648
    1.5640 	   86.0820 	    3.0000 	   12.0000 	   38.6718
    1.8540 	   86.3000 	    3.0000 	   12.0000 	   38.7808
    1.6251 	   86.5140 	    3.0000 	   12.0000 	   38.8878
    1.6098 	   86.7260 	    3.0000 	   12.0000 	   38.9938
    1.7929 	   86.9320 	    3.0000 	   12.0000 	   39.0968
    1.5793 	   87.1300 	    3.0000 	   12.0000 	   39.1958
    1.5335 	   87.3180 	    3.0000 	   12.0000 	   39.2898
    1.5640 	   87.5260 	    3.0000 	   12.0000 	   39.3938
    1.6861 	   87.7400 	    3.0000 	   12.0000 	   39.5008
    1.6251 	   87.9520 	    3.0000 	   12.0000 	   39.6069
    1.4878 	   88.1760 	    3.0000 	   12.0000 	   39.7189
    1.6403 	   88.3900 	    3.0000 	   12.0000 	   39.8259
    1.5640 	   88.6000 	    3.0000 	   12.0000 	   39.9309
    1.8387 	   88.8140 	    3.0000 	   12.0000 	   40.0379
    1.6098 	   89.0180 	    3.0000 	   12.0000 	   40.1399
    1.6251 	   89.2160 	    3.0000 	   12.0000 	   40.2389
    1.6403 	   89.4100 	    3.0000 	   12.0000 	   40.3359
    1.3809 	   89.6040 	    3.0000 	   12.0000 	   40.4329
    1.4725 	   89.8100 	    3.0000 	   12.0000 	   40.5359
    1.3657 	   90.0220 	    3.0000 	   12.0000 	   40.6419
    1.4572 	   90.2480 	    3.0000 	   12.0000 	   40.7549
    1.5488 	   90.4640 	    3.0000 	   12.0000 	   40.8629
    1.5640 	   90.6800 	    3.0000 	   12.0000 	   40.9709
    1.3809 	   90.8700 	    3.0000 	   12.0000 	   41.0659
    1.6403 	   91.0600 	    3.0000 	   12.0000 	   41.1609
    1.4725 	   91.2500 	    3.0000 	   12.0000 	   41.2559
    1.5183 	   91.4420 	    3.0000 	   12.0000 	   41.3520
    1.4420 	   91.6420 	    3.0000 	   12.0000 	   41.4520
    1.4115 	   91.8600 	    3.0000 	   12.0000 	   41.5610
    1.5183 	   92.0720 	    3.0000 	   12.0000 	   41.6670
    1.5335 	   92.2940 	    3.0000 	   12.0000 	   41.7780
    1.5488 	   92.4920 	    3.0000 	   12.0000 	   41.8770
    1.2894 	   92.7020 	    3.0000 	   12.0000 	   41.9820
    1.3962 	   92.9140 	    3.0000 	   12.0000 	   42.0880
    1.4725 	   93.1140 	    3.0000 	   12.0000 	   42.1880
    1.3046 	   93.3140 	    3.0000 	   12.0000 	   42.2880
    1.4725 	   93.5280 	    3.0000 	   12.0000 	   42.3940
    1.3657 	   93.7440 	    3.0000 	   12.0000 	   42.5020
    1.2894 	   93.9580 	    3.0000 	   12.0000 	   42.6090
    1.2436 	   94.1840 	    3.0000 	   12.0000 	   42.7220
    1.2741 	   94.4040 	    3.0000 	   12.0000 	   42.8320
    1.4115 	   94.6220 	    3.0000 	   12.0000 	   42.9410
    1.5335 	   94.8340 	    3.0000 	   12.0000 	   43.0471
    1.2741 	   95.0300 	    3.0000 	   12.0000 	   43.1451
    1.2284 	   95.2240 	    3.0000 	   12.0000 	   43.2421
    1.2436 	   95.4180 	    3.0000 	   12.0000 	   43.3391
    1.2589 	   95.6380 	    3.0000 	   12.0000 	   43.4491
    1.1826 	   95.8580 	    3.0000 	   12.0000 	   43.5591
    1.3352 	   96.0780 	    3.0000 	   12.0000 	   43.6691
    1.1826 	   96.3040 	    3.0000 	   12.0000 	   43.7821
    1.0300 	   96.5180 	    3.0000 	   12.0000 	   43.8891
    1.3809 	   96.7340 	    3.0000 	   12.0000 	   43.9971
    1.3199 	   96.9500 	    3.0000 	   12.0000 	   44.1051
    1.2741 	   97.1640 	    3.0000 	   12.0000 	   44.2121
    0.8927 	   97.3520 	    3.0000 	   12.0000 	   44.3061
    1.2284 	   97.5540 	    3.0000 	   12.0000 	   44.4071
    1.1521 	   97.7740 	    3.0000 	   12.0000 	   44.5171
    1.1063 	   97.9920 	    3.0000 	   12.0000 	   44.6261
    1.1063 	   98.2100 	    3.0000 	   12.0000 	   44.7351
    1.2131 	   98.4100 	    3.0000 	   12.0000 	   44.8352
    0.9537 	   98.6040 	    3.0000 	   12.0000 	   44.9322
    1.1673 	   98.7980 	    3.0000 	   12.0000 	   45.0292
    1.0300 	   99.0340 	    3.0000 	   12.0000 	   45.1472
    1.1826 	   99.2280 	    3.0000 	   12.0000 	   45.2442
    1.1826 	   99.4120 	    3.0000 	   12.0000 	   45.3362
    1.1673 	   99.6200 	    3.0000 	   12.0000 	   45.4402
    1.0758 	   99.8400 	    3.0000 	   12.0000 	   45.5502
    0.9079 	  100.0600 	    3.0000 	   12.0000 	   45.6602
    1.1063 	  100.2900 	    3.0000 	   12.0000 	   45.7752
    0.8469 	  100.5100 	    3.0000 	   12.0000 	   45.8852
    1.0452 	  100.7300 	    3.0000 	   12.0000 	   45.9952
    0.9537 	  100.9420 	    3.0000 	   12.0000 	   46.1012
    1.0605 	  101.1480 	    3.0000 	   12.0000 	   46.2042
    0.9842 	  101.3460 	    3.0000 	   12.0000 	   46.3032
    1.0300 	  101.5600 	    3.0000 	   12.0000 	   46.4102
    1.1368 	  101.7800 	    3.0000 	   12.0000 	   46.5202
    0.8011 	  102.0120 	    3.0000 	   12.0000 	   46.6363
    1.1215 	  102.2340 	    3.0000 	   12.0000 	   46.7473
    1.0147 	  102.4500 	    3.0000 	   12.0000 	   46.8553
    0.9537 	  102.6820 	    3.0000 	   12.0000 	   46.9713
    0.9384 	  102.9060 	    3.0000 	   12.0000 	   47.0833
    0.9079 	  103.1020 	    3.0000 	   12.0000 	   47.1813
    1.0605 	  103.2960 	    3.0000 	   12.0000 	   47.2783
    0.8927 	  103.4920 	    3.0000 	   12.0000 	   47.3763
    0.9079 	  103.7120 	    3.0000 	   12.0000 	   47.4863
    0.9232 	  103.9300 	    3.0000 	   12.0000 	   47.5953
    0.8469 	  104.1280 	    3.0000 	   12.0000 	   47.6943
    0.8774 	  104.3280 	    3.0000 	   12.0000 	   47.7943
    0.9537 	  104.5240 	    3.0000 	   12.0000 	   47.8923
    0.9384 	  104.7200 	    3.0000 	   12.0000 	   47.9903
    0.9079 	  104.9260 	    3.0000 	   12.0000 	   48.0933
    0.4654 	  105.1240 	    3.0000 	   12.0000 	   48.1923
    0.8927 	  105.3440 	    3.0000 	   12.0000 	   48.3023
    0.8164 	  105.5440 	    3.0000 	   12.0000 	   48.4024
    0.8621 	  105.7720 	    3.0000 	   12.0000 	   48.5164
    0.7706 	  105.9960 	    3.0000 	   12.0000 	   48.6284
    0.9384 	  106.2180 	    3.0000 	   12.0000 	   48.7394
    0.8011 	  106.4420 	    3.0000 	   12.0000 	   48.8514
    0.9384 	  106.6620 	    3.0000 	   12.0000 	   48.9614
    0.7248 	  106.8800 	    3.0000 	   12.0000 	   49.0704
    0.8621 	  107.0900 	    3.0000 	   12.0000 	   49.1754
    0.6638 	  107.2920 	    3.0000 	   12.0000 	   49.2764
    0.6790 	  107.5100 	    3.0000 	   12.0000 	   49.3854
    0.6180 	  107.7400 	    3.0000 	   12.0000 	   49.5004
    0.6332 	  107.9640 	    3.0000 	   12.0000 	   49.6124
    0.8469 	  108.1940 	    3.0000 	   12.0000 	   49.7274
    0.8164 	  108.4160 	    3.0000 	   12.0000 	   49.8384
    0.7553 	  108.6400 	    3.0000 	   12.0000 	   49.9504
    0.6485 	  108.8580 	    3.0000 	   12.0000 	   50.0595
    0.8011 	  109.0640 	    3.0000 	   12.0000 	   50.1625
    0.6485 	  109.2620 	    3.0000 	   12.0000 	   50.2615
    0.8011 	  109.4560 	    3.0000 	   12.0000 	   50.3585
    0.6943 	  109.6720 	    3.0000 	   12.0000 	   50.4665
    0.6485 	  109.8980 	    3.0000 	   12.0000 	   50.5795
    0.6943 	  110.1200 	    3.0000 	   12.0000 	   50.6905
    0.5417 	  110.3560 	    3.0000 	   12.0000 	   50.8085
    0.5875 	  110.5780 	    3.0000 	   12.0000 	   50.9195
    0.6638 	  110.8040 	    3.0000 	   12.0000 	   51.0325
    0.5112 	  111.0200 	    3.0000 	   12.0000 	   51.1405
    0.5875 	  111.2300 	    3.0000 	   12.0000 	   51.2455
    0.6943 	  111.4280 	    3.0000 	   12.0000 	   51.3445
    0.5570 	  111.6380 	    3.0000 	   12.0000 	   51.4495
    0.5264 	  111.8700 	    3.0000 	   12.0000 	   51.5655
    0.2670 	  112.0980 	    3.0000 	   12.0000 	   51.6795
    0.4349 	  112.3320 	    3.0000 	   12.0000 	   51.7966
    0.4959 	  112.5580 	    3.0000 	   12.0000 	   51.9096
    0.4654 	  112.7900 	    3.0000 	   12.0000 	   52.0256
    0.4196 	  113.0060 	    3.0000 	   12.0000 	   52.1336
    0.5570 	  113.2060 	    3.0000 	   12.0000 	   52.2336
    0.4044 	  113.4080 	    3.0000 	   12.0000 	   52.3346
    0.6027 	  113.6100 	    3.0000 	   12.0000 	   52.4356
    0.4654 	  113.8420 	    3.0000 	   12.0000 	   52.5516
    0.5112 	  114.0640 	    3.0000 	   12.0000 	   52.6626
    0.4654 	  114.2820 	    3.0000 	   12.0000 	   52.7716
    0.5875 	  114.5040 	    3.0000 	   12.0000 	   52.8826
    0.5112 	  114.7280 	    3.0000 	   12.0000 	   52.9946
    0.5417 	  114.9540 	    3.0000 	   12.0000 	   53.1076
    0.3586 	  115.1800 	    3.0000 	   12.0000 	   53.2206
    0.3586 	  115.3800 	    3.0000 	   12.0000 	   53.3206
    0.3738 	  115.5760 	    3.0000 	   12.0000 	   53.4186
    0.4196 	  115.7940 	    3.0000 	   12.0000 	   53.5276
    0.3586 	  116.0160 	    3.0000 	   12.0000 	   53.6387
    0.4654 	  116.2420 	    3.0000 	   12.0000 	   53.7517
    0.3586 	  116.4720 	    3.0000 	   12.0000 	   53.8667
    0.4959 	  116.6920 	    3.0000 	   12.0000 	   53.9767
    0.3891 	  116.9240 	    3.0000 	   12.0000 	   54.0927
    0.2213 	  117.2640 	    3.0000 	   12.0000 	   54.2627
    0.3586 	  117.4600 	    3.0000 	   12.0000 	   54.3607
    0.4807 	  117.6800 	    3.0000 	   12.0000 	   54.4707
    0.4044 	  117.9020 	    3.0000 	   12.0000 	   54.5817
    0.1602 	  118.1240 	    3.0000 	   12.0000 	   54.6927
    0.3128 	  118.3540 	    3.0000 	   12.0000 	   54.8077
   -0.0839 	  118.5720 	    3.0000 	   12.0000 	   54.9167
    0.4044 	  118.7960 	    3.0000 	   12.0000 	   55.0287
    0.1907 	  119.0180 	    3.0000 	   12.0000 	   55.1397
    0.3281 	  119.2240 	    3.0000 	   12.0000 	   55.2427
    0.3738 	  119.4280 	    3.0000 	   12.0000 	   55.3448
    0.2823 	  119.6380 	    3.0000 	   12.0000 	   55.4498
    0.4959 	  119.8680 	    3.0000 	   12.0000 	   55.5648
    0.2976 	  120.0940 	    3.0000 	   12.0000 	   55.6778
    0.2518 	  120.3300 	    3.0000 	   12.0000 	   55.7958
    0.1907 	  120.5540 	    3.0000 	   12.0000 	   55.9078
    0.2518 	  120.7760 	    3.0000 	   12.0000 	   56.0188
    0.3891 	  121.0020 	    3.0000 	   12.0000 	   56.1318
    0.4044 	  121.2120 	    3.0000 	   12.0000 	   56.2368
    0.3738 	  121.4160 	    3.0000 	   12.0000 	   56.3388
    0.5112 	  121.6200 	    3.0000 	   12.0000 	   56.4408
    0.3891 	  121.6940 	    3.0000 	   12.0000 	   56.4778