File: instron/independence/size/bad_l15w3_40_30/b_l15w2_40_30.txt
Thayer School of Engineering        Instron 4442 Mechanical Testing System
7/5/2018 7:56:27 AM

  Force (N)	Extension (mm)	Not Used	Not Used	Not Used	     Hour	    Minute	    Second
    0.3281 	    0.5105 	    7.0000 	   57.0000 	    4.0999
    0.5264 	    0.5885 	    7.0000 	   57.0000 	    4.2559
    0.2823 	    0.6550 	    7.0000 	   57.0000 	    4.3889
    0.4959 	    0.7220 	    7.0000 	   57.0000 	    4.5229
    0.4501 	    0.8055 	    7.0000 	   57.0000 	    4.6899
    0.5722 	    0.8735 	    7.0000 	   57.0000 	    4.8259
    0.4654 	    0.9455 	    7.0000 	   57.0000 	    4.9700
    0.4807 	    1.0100 	    7.0000 	   57.0000 	    5.0990
    0.4501 	    1.0880 	    7.0000 	   57.0000 	    5.2550
    0.4349 	    1.1630 	    7.0000 	   57.0000 	    5.4050
    0.5264 	    1.2395 	    7.0000 	   57.0000 	    5.5580
    0.4196 	    1.2975 	    7.0000 	   57.0000 	    5.6740
    0.4959 	    1.3715 	    7.0000 	   57.0000 	    5.8220
    0.4501 	    1.4270 	    7.0000 	   57.0000 	    5.9330
    0.4807 	    1.5005 	    7.0000 	   57.0000 	    6.0800
    0.3586 	    1.5650 	    7.0000 	   57.0000 	    6.2090
    0.5112 	    1.6215 	    7.0000 	   57.0000 	    6.3220
    0.4959 	    1.6630 	    7.0000 	   57.0000 	    6.4050
    0.5417 	    1.7130 	    7.0000 	   57.0000 	    6.5050
    0.4654 	    1.7605 	    7.0000 	   57.0000 	    6.6000
    0.5417 	    1.8045 	    7.0000 	   57.0000 	    6.6881
    0.4196 	    1.8610 	    7.0000 	   57.0000 	    6.8011
    0.5722 	    1.9235 	    7.0000 	   57.0000 	    6.9261
    0.4501 	    1.9725 	    7.0000 	   57.0000 	    7.0241
    0.4501 	    2.0205 	    7.0000 	   57.0000 	    7.1201
    0.3128 	    2.0685 	    7.0000 	   57.0000 	    7.2161
    0.5570 	    2.1165 	    7.0000 	   57.0000 	    7.3111
    0.4349 	    2.1635 	    7.0000 	   57.0000 	    7.4061
    0.1755 	    2.2115 	    7.0000 	   57.0000 	    7.5021
    0.6180 	    2.2580 	    7.0000 	   57.0000 	    7.5951
    0.4959 	    2.3010 	    7.0000 	   57.0000 	    7.6811
    0.5722 	    2.3435 	    7.0000 	   57.0000 	    7.7661
    0.4959 	    2.3845 	    7.0000 	   57.0000 	    7.8481
    0.6790 	    2.4260 	    7.0000 	   57.0000 	    7.9311
    0.4044 	    2.4745 	    7.0000 	   57.0000 	    8.0281
    0.3891 	    2.5215 	    7.0000 	   57.0000 	    8.1221
    0.5112 	    2.5705 	    7.0000 	   57.0000 	    8.2201
    0.5264 	    2.6200 	    7.0000 	   57.0000 	    8.3191
    0.4959 	    2.6685 	    7.0000 	   57.0000 	    8.4162
    0.4501 	    2.7150 	    7.0000 	   57.0000 	    8.5092
    0.4044 	    2.7620 	    7.0000 	   57.0000 	    8.6032
    0.5417 	    2.8040 	    7.0000 	   57.0000 	    8.6872
    0.4196 	    2.8455 	    7.0000 	   57.0000 	    8.7702
    0.5264 	    2.8855 	    7.0000 	   57.0000 	    8.8502
    0.5722 	    2.9270 	    7.0000 	   57.0000 	    8.9332
    0.4196 	    2.9725 	    7.0000 	   57.0000 	    9.0242
    0.6027 	    3.0190 	    7.0000 	   57.0000 	    9.1172
    0.4196 	    3.0655 	    7.0000 	   57.0000 	    9.2102
    0.4959 	    3.1120 	    7.0000 	   57.0000 	    9.3032
    0.2213 	    3.1615 	    7.0000 	   57.0000 	    9.4022
    0.5112 	    3.2070 	    7.0000 	   57.0000 	    9.4932
    0.3891 	    3.2540 	    7.0000 	   57.0000 	    9.5872
    0.4959 	    3.2960 	    7.0000 	   57.0000 	    9.6712
    0.6638 	    3.3375 	    7.0000 	   57.0000 	    9.7542
    0.4501 	    3.3795 	    7.0000 	   57.0000 	    9.8382
    0.4044 	    3.4210 	    7.0000 	   57.0000 	    9.9212
    0.6332 	    3.4700 	    7.0000 	   57.0000 	   10.0182
    0.4807 	    3.5175 	    7.0000 	   57.0000 	   10.1132
    0.5570 	    3.5655 	    7.0000 	   57.0000 	   10.2093
    0.5112 	    3.6130 	    7.0000 	   57.0000 	   10.3043
    0.4959 	    3.6615 	    7.0000 	   57.0000 	   10.4013
    0.5112 	    3.7110 	    7.0000 	   57.0000 	   10.5003
    0.5112 	    3.7590 	    7.0000 	   57.0000 	   10.5963
    0.4501 	    3.8025 	    7.0000 	   57.0000 	   10.6833
    0.4196 	    3.8450 	    7.0000 	   57.0000 	   10.7683
    0.4654 	    3.9000 	    7.0000 	   57.0000 	   10.8783
    0.4959 	    3.9425 	    7.0000 	   57.0000 	   10.9633
    0.4807 	    3.9870 	    7.0000 	   57.0000 	   11.0523
    0.5570 	    4.0290 	    7.0000 	   57.0000 	   11.1363
    0.4501 	    4.0745 	    7.0000 	   57.0000 	   11.2273
    0.5417 	    4.1200 	    7.0000 	   57.0000 	   11.3183
    0.5264 	    4.1670 	    7.0000 	   57.0000 	   11.4123
    0.4807 	    4.2120 	    7.0000 	   57.0000 	   11.5023
    0.4654 	    4.2600 	    7.0000 	   57.0000 	   11.5983
    0.5875 	    4.3020 	    7.0000 	   57.0000 	   11.6823
    0.5417 	    4.3445 	    7.0000 	   57.0000 	   11.7673
    0.4654 	    4.3845 	    7.0000 	   57.0000 	   11.8473
    0.5570 	    4.4245 	    7.0000 	   57.0000 	   11.9274
    0.6180 	    4.4705 	    7.0000 	   57.0000 	   12.0194
    0.4959 	    4.5155 	    7.0000 	   57.0000 	   12.1094
    0.5417 	    4.5595 	    7.0000 	   57.0000 	   12.1974
    0.6027 	    4.6055 	    7.0000 	   57.0000 	   12.2894
    0.4349 	    4.6540 	    7.0000 	   57.0000 	   12.3864
    0.4044 	    4.7030 	    7.0000 	   57.0000 	   12.4844
    0.4807 	    4.7510 	    7.0000 	   57.0000 	   12.5804
    0.4959 	    4.7970 	    7.0000 	   57.0000 	   12.6724
    0.4501 	    4.8410 	    7.0000 	   57.0000 	   12.7604
    0.5417 	    4.8805 	    7.0000 	   57.0000 	   12.8394
    0.4959 	    4.9195 	    7.0000 	   57.0000 	   12.9174
    0.6027 	    4.9630 	    7.0000 	   57.0000 	   13.0044
    0.5264 	    5.0115 	    7.0000 	   57.0000 	   13.1014
    0.4501 	    5.0615 	    7.0000 	   57.0000 	   13.2014
    0.3891 	    5.1075 	    7.0000 	   57.0000 	   13.2934
    0.6332 	    5.1560 	    7.0000 	   57.0000 	   13.3904
    0.5264 	    5.2040 	    7.0000 	   57.0000 	   13.4864
    0.4959 	    5.2535 	    7.0000 	   57.0000 	   13.5854
    0.6638 	    5.2995 	    7.0000 	   57.0000 	   13.6775
    0.5722 	    5.3425 	    7.0000 	   57.0000 	   13.7635
    0.6638 	    5.3840 	    7.0000 	   57.0000 	   13.8465
    0.6180 	    5.4245 	    7.0000 	   57.0000 	   13.9275
    0.6485 	    5.4725 	    7.0000 	   57.0000 	   14.0235
    0.4654 	    5.5200 	    7.0000 	   57.0000 	   14.1185
    0.6332 	    5.5695 	    7.0000 	   57.0000 	   14.2175
    0.4807 	    5.6150 	    7.0000 	   57.0000 	   14.3085
    0.5417 	    5.6600 	    7.0000 	   57.0000 	   14.3985
    0.4959 	    5.7065 	    7.0000 	   57.0000 	   14.4915
    0.5722 	    5.7515 	    7.0000 	   57.0000 	   14.5815
    0.6638 	    5.7950 	    7.0000 	   57.0000 	   14.6685
    0.5722 	    5.8395 	    7.0000 	   57.0000 	   14.7575
    0.5112 	    5.8810 	    7.0000 	   57.0000 	   14.8405
    0.7553 	    5.9220 	    7.0000 	   57.0000 	   14.9225
    0.7553 	    5.9700 	    7.0000 	   57.0000 	   15.0185
    0.5875 	    6.0160 	    7.0000 	   57.0000 	   15.1105
    0.2976 	    6.0605 	    7.0000 	   57.0000 	   15.1995
    0.4959 	    6.1020 	    7.0000 	   57.0000 	   15.2825
    0.5112 	    6.1450 	    7.0000 	   57.0000 	   15.3686
    0.4959 	    6.1905 	    7.0000 	   57.0000 	   15.4596
    0.5875 	    6.2380 	    7.0000 	   57.0000 	   15.5546
    0.4349 	    6.2865 	    7.0000 	   57.0000 	   15.6516
    0.5264 	    6.3300 	    7.0000 	   57.0000 	   15.7386
    0.5264 	    6.3725 	    7.0000 	   57.0000 	   15.8236
    0.5722 	    6.4125 	    7.0000 	   57.0000 	   15.9036
    0.4654 	    6.4550 	    7.0000 	   57.0000 	   15.9886
    0.6485 	    6.4980 	    7.0000 	   57.0000 	   16.0746
    0.2823 	    6.5440 	    7.0000 	   57.0000 	   16.1666
    0.4196 	    6.5915 	    7.0000 	   57.0000 	   16.2616
    0.6332 	    6.6395 	    7.0000 	   57.0000 	   16.3576
    0.6027 	    6.6870 	    7.0000 	   57.0000 	   16.4526
    0.4349 	    6.7380 	    7.0000 	   57.0000 	   16.5546
    0.4654 	    6.7870 	    7.0000 	   57.0000 	   16.6526
    0.4654 	    6.8315 	    7.0000 	   57.0000 	   16.7416
    0.5722 	    6.8735 	    7.0000 	   57.0000 	   16.8256
    0.4959 	    6.9150 	    7.0000 	   57.0000 	   16.9086
    0.4349 	    6.9615 	    7.0000 	   57.0000 	   17.0016
    0.4807 	    7.0120 	    7.0000 	   57.0000 	   17.1026
    0.5875 	    7.0620 	    7.0000 	   57.0000 	   17.2027
    0.5875 	    7.1115 	    7.0000 	   57.0000 	   17.3017
    0.4196 	    7.1605 	    7.0000 	   57.0000 	   17.3997
    0.5264 	    7.2080 	    7.0000 	   57.0000 	   17.4947
    0.3586 	    7.2570 	    7.0000 	   57.0000 	   17.5927
    0.4807 	    7.3030 	    7.0000 	   57.0000 	   17.6847
    0.4959 	    7.3475 	    7.0000 	   57.0000 	   17.7737
    0.5570 	    7.3900 	    7.0000 	   57.0000 	   17.8587
    0.4807 	    7.4345 	    7.0000 	   57.0000 	   17.9477
    0.5264 	    7.4770 	    7.0000 	   57.0000 	   18.0327
    0.5570 	    7.5210 	    7.0000 	   57.0000 	   18.1207
    0.4349 	    7.5710 	    7.0000 	   57.0000 	   18.2207
    0.4959 	    7.6205 	    7.0000 	   57.0000 	   18.3197
    0.4807 	    7.6725 	    7.0000 	   57.0000 	   18.4237
    0.5112 	    7.7215 	    7.0000 	   57.0000 	   18.5217
    0.4807 	    7.7705 	    7.0000 	   57.0000 	   18.6197
    0.5570 	    7.8170 	    7.0000 	   57.0000 	   18.7127
    0.7248 	    7.8650 	    7.0000 	   57.0000 	   18.8087
    0.5417 	    7.9080 	    7.0000 	   57.0000 	   18.8948
    0.4349 	    7.9505 	    7.0000 	   57.0000 	   18.9798
    0.5112 	    7.9940 	    7.0000 	   57.0000 	   19.0668
    0.5112 	    8.0450 	    7.0000 	   57.0000 	   19.1688
    0.5722 	    8.0955 	    7.0000 	   57.0000 	   19.2698
    0.4959 	    8.1465 	    7.0000 	   57.0000 	   19.3718
    0.6332 	    8.1960 	    7.0000 	   57.0000 	   19.4708
    0.7401 	    8.2480 	    7.0000 	   57.0000 	   19.5748
    0.4959 	    8.2960 	    7.0000 	   57.0000 	   19.6708
    0.5112 	    8.3415 	    7.0000 	   57.0000 	   19.7618
    0.6180 	    8.3850 	    7.0000 	   57.0000 	   19.8488
    0.5112 	    8.4280 	    7.0000 	   57.0000 	   19.9348
    0.6638 	    8.4795 	    7.0000 	   57.0000 	   20.0378
    0.5570 	    8.5285 	    7.0000 	   57.0000 	   20.1358
    0.5722 	    8.5790 	    7.0000 	   57.0000 	   20.2368
    0.5875 	    8.6290 	    7.0000 	   57.0000 	   20.3368
    0.6180 	    8.6800 	    7.0000 	   57.0000 	   20.4388
    0.6027 	    8.7300 	    7.0000 	   57.0000 	   20.5388
    0.4654 	    8.7795 	    7.0000 	   57.0000 	   20.6379
    0.6485 	    8.8250 	    7.0000 	   57.0000 	   20.7289
    0.6180 	    8.8715 	    7.0000 	   57.0000 	   20.8219
    0.4196 	    8.9140 	    7.0000 	   57.0000 	   20.9069
    0.6332 	    8.9595 	    7.0000 	   57.0000 	   20.9979
    0.4959 	    9.0035 	    7.0000 	   57.0000 	   21.0859
    0.6790 	    9.0545 	    7.0000 	   57.0000 	   21.1879
    0.6790 	    9.1055 	    7.0000 	   57.0000 	   21.2899
    0.4349 	    9.1540 	    7.0000 	   57.0000 	   21.3869
    0.4196 	    9.1975 	    7.0000 	   57.0000 	   21.4739
    0.5417 	    9.2465 	    7.0000 	   57.0000 	   21.5719
    0.4349 	    9.2925 	    7.0000 	   57.0000 	   21.6639
    0.7095 	    9.3375 	    7.0000 	   57.0000 	   21.7539
    0.5722 	    9.3815 	    7.0000 	   57.0000 	   21.8419
    0.6180 	    9.4250 	    7.0000 	   57.0000 	   21.9289
    0.5417 	    9.4725 	    7.0000 	   57.0000 	   22.0239
    0.5722 	    9.5195 	    7.0000 	   57.0000 	   22.1179
    0.4959 	    9.5630 	    7.0000 	   57.0000 	   22.2049
    0.5875 	    9.6125 	    7.0000 	   57.0000 	   22.3039
    0.5112 	    9.6650 	    7.0000 	   57.0000 	   22.4090
    0.3433 	    9.7145 	    7.0000 	   57.0000 	   22.5080
    0.7248 	    9.7650 	    7.0000 	   57.0000 	   22.6090
    0.6790 	    9.8135 	    7.0000 	   57.0000 	   22.7060
    0.6332 	    9.8600 	    7.0000 	   57.0000 	   22.7990
    0.5722 	    9.9045 	    7.0000 	   57.0000 	   22.8880
    0.6790 	    9.9485 	    7.0000 	   57.0000 	   22.9760
    0.4654 	    9.9965 	    7.0000 	   57.0000 	   23.0720
    0.6790 	   10.0500 	    7.0000 	   57.0000 	   23.1790
    0.5570 	   10.1000 	    7.0000 	   57.0000 	   23.2790
    0.5722 	   10.1500 	    7.0000 	   57.0000 	   23.3790
    0.5875 	   10.2010 	    7.0000 	   57.0000 	   23.4810
    0.6027 	   10.2515 	    7.0000 	   57.0000 	   23.5820
    0.6332 	   10.3035 	    7.0000 	   57.0000 	   23.6860
    0.3433 	   10.3495 	    7.0000 	   57.0000 	   23.7780
    0.5875 	   10.3955 	    7.0000 	   57.0000 	   23.8700
    0.5875 	   10.4400 	    7.0000 	   57.0000 	   23.9590
    0.5875 	   10.4905 	    7.0000 	   57.0000 	   24.0600
    0.4501 	   10.5435 	    7.0000 	   57.0000 	   24.1661
    0.5112 	   10.5930 	    7.0000 	   57.0000 	   24.2651
    0.7401 	   10.6445 	    7.0000 	   57.0000 	   24.3681
    0.6180 	   10.6965 	    7.0000 	   57.0000 	   24.4721
    0.5875 	   10.7480 	    7.0000 	   57.0000 	   24.5751
    0.5264 	   10.7990 	    7.0000 	   57.0000 	   24.6771
    0.4349 	   10.8500 	    7.0000 	   57.0000 	   24.7791
    0.5875 	   10.8960 	    7.0000 	   57.0000 	   24.8711
    0.5875 	   10.9410 	    7.0000 	   57.0000 	   24.9611
    0.6027 	   10.9910 	    7.0000 	   57.0000 	   25.0611
    0.6790 	   11.0440 	    7.0000 	   57.0000 	   25.1671
    0.4959 	   11.0970 	    7.0000 	   57.0000 	   25.2731
    0.6027 	   11.1475 	    7.0000 	   57.0000 	   25.3741
    0.5570 	   11.1985 	    7.0000 	   57.0000 	   25.4761
    0.5264 	   11.2520 	    7.0000 	   57.0000 	   25.5821
    0.5875 	   11.3045 	    7.0000 	   57.0000 	   25.6881
    0.6027 	   11.3525 	    7.0000 	   57.0000 	   25.7841
    0.5722 	   11.4005 	    7.0000 	   57.0000 	   25.8802
    0.7401 	   11.4475 	    7.0000 	   57.0000 	   25.9742
    0.5875 	   11.4950 	    7.0000 	   57.0000 	   26.0692
    0.5112 	   11.5485 	    7.0000 	   57.0000 	   26.1762
    0.5722 	   11.5995 	    7.0000 	   57.0000 	   26.2782
    0.3891 	   11.6525 	    7.0000 	   57.0000 	   26.3842
    0.5264 	   11.7020 	    7.0000 	   57.0000 	   26.4832
    0.6027 	   11.7490 	    7.0000 	   57.0000 	   26.5772
    0.6332 	   11.7955 	    7.0000 	   57.0000 	   26.6702
    0.4196 	   11.8440 	    7.0000 	   57.0000 	   26.7672
    0.5570 	   11.8900 	    7.0000 	   57.0000 	   26.8592
    0.6790 	   11.9365 	    7.0000 	   57.0000 	   26.9522
    0.5417 	   11.9820 	    7.0000 	   57.0000 	   27.0432
    0.6332 	   12.0310 	    7.0000 	   57.0000 	   27.1412
    0.6332 	   12.0790 	    7.0000 	   57.0000 	   27.2372
    0.6485 	   12.1250 	    7.0000 	   57.0000 	   27.3292
    0.4959 	   12.1740 	    7.0000 	   57.0000 	   27.4272
    0.7095 	   12.2270 	    7.0000 	   57.0000 	   27.5322
    0.5264 	   12.2780 	    7.0000 	   57.0000 	   27.6343
    0.6943 	   12.3250 	    7.0000 	   57.0000 	   27.7283
    0.5722 	   12.3725 	    7.0000 	   57.0000 	   27.8233
    0.5112 	   12.4190 	    7.0000 	   57.0000 	   27.9163
    0.4959 	   12.4685 	    7.0000 	   57.0000 	   28.0153
    0.5570 	   12.5170 	    7.0000 	   57.0000 	   28.1123
    0.3433 	   12.5660 	    7.0000 	   57.0000 	   28.2103
    0.7401 	   12.6160 	    7.0000 	   57.0000 	   28.3103
    0.6332 	   12.6630 	    7.0000 	   57.0000 	   28.4043
    0.5722 	   12.7130 	    7.0000 	   57.0000 	   28.5043
    0.6943 	   12.7610 	    7.0000 	   57.0000 	   28.6003
    0.5722 	   12.8155 	    7.0000 	   57.0000 	   28.7093
    0.6638 	   12.8680 	    7.0000 	   57.0000 	   28.8143
    0.6027 	   12.9175 	    7.0000 	   57.0000 	   28.9133
    0.7706 	   12.9645 	    7.0000 	   57.0000 	   29.0073
    0.5417 	   13.0110 	    7.0000 	   57.0000 	   29.1003
    0.6027 	   13.0590 	    7.0000 	   57.0000 	   29.1963
    0.5875 	   13.1055 	    7.0000 	   57.0000 	   29.2893
    0.5570 	   13.1525 	    7.0000 	   57.0000 	   29.3834
    0.2670 	   13.2020 	    7.0000 	   57.0000 	   29.4824
    0.6943 	   13.2550 	    7.0000 	   57.0000 	   29.5884
    0.5875 	   13.3075 	    7.0000 	   57.0000 	   29.6934
    0.7401 	   13.3565 	    7.0000 	   57.0000 	   29.7914
    0.6485 	   13.4070 	    7.0000 	   57.0000 	   29.8924
    0.5875 	   13.4540 	    7.0000 	   57.0000 	   29.9864
    0.6332 	   13.5025 	    7.0000 	   57.0000 	   30.0834
    0.5570 	   13.5500 	    7.0000 	   57.0000 	   30.1784
    0.6638 	   13.6020 	    7.0000 	   57.0000 	   30.2824
    0.5112 	   13.6535 	    7.0000 	   57.0000 	   30.3854
    0.6027 	   13.7060 	    7.0000 	   57.0000 	   30.4904
    0.6943 	   13.7590 	    7.0000 	   57.0000 	   30.5964
    0.6332 	   13.8135 	    7.0000 	   57.0000 	   30.7054
    0.6332 	   13.8660 	    7.0000 	   57.0000 	   30.8104
    0.6485 	   13.9155 	    7.0000 	   57.0000 	   30.9094
    0.6180 	   13.9645 	    7.0000 	   57.0000 	   31.0074
    0.5417 	   14.0120 	    7.0000 	   57.0000 	   31.1025
    0.6943 	   14.0610 	    7.0000 	   57.0000 	   31.2005
    0.6180 	   14.1110 	    7.0000 	   57.0000 	   31.3005
    0.6485 	   14.1630 	    7.0000 	   57.0000 	   31.4045
    0.5722 	   14.2175 	    7.0000 	   57.0000 	   31.5135
    0.5722 	   14.2705 	    7.0000 	   57.0000 	   31.6195
    0.2060 	   14.3250 	    7.0000 	   57.0000 	   31.7285
    0.5112 	   14.3795 	    7.0000 	   57.0000 	   31.8375
    0.6332 	   14.4320 	    7.0000 	   57.0000 	   31.9425
    0.8011 	   14.4815 	    7.0000 	   57.0000 	   32.0415
    0.6485 	   14.5300 	    7.0000 	   57.0000 	   32.1385
    0.7248 	   14.5795 	    7.0000 	   57.0000 	   32.2375
    0.7553 	   14.6320 	    7.0000 	   57.0000 	   32.3425
    0.6180 	   14.6860 	    7.0000 	   57.0000 	   32.4505
    0.5570 	   14.7395 	    7.0000 	   57.0000 	   32.5575
    0.7401 	   14.7950 	    7.0000 	   57.0000 	   32.6685
    0.5875 	   14.8485 	    7.0000 	   57.0000 	   32.7755
    0.6180 	   14.9005 	    7.0000 	   57.0000 	   32.8796
    0.5722 	   14.9515 	    7.0000 	   57.0000 	   32.9816
    0.6332 	   15.0035 	    7.0000 	   57.0000 	   33.0856
    0.6180 	   15.0535 	    7.0000 	   57.0000 	   33.1856
    0.6180 	   15.1020 	    7.0000 	   57.0000 	   33.2826
    0.6027 	   15.1570 	    7.0000 	   57.0000 	   33.3926
    0.5112 	   15.2110 	    7.0000 	   57.0000 	   33.5006
    0.4959 	   15.2635 	    7.0000 	   57.0000 	   33.6056
    0.7401 	   15.3175 	    7.0000 	   57.0000 	   33.7136
    0.5264 	   15.3725 	    7.0000 	   57.0000 	   33.8236
    0.5875 	   15.4270 	    7.0000 	   57.0000 	   33.9326
    0.6943 	   15.4795 	    7.0000 	   57.0000 	   34.0376
    0.6180 	   15.5285 	    7.0000 	   57.0000 	   34.1356
    0.6332 	   15.5765 	    7.0000 	   57.0000 	   34.2316
    0.7248 	   15.6235 	    7.0000 	   57.0000 	   34.3256
    0.6790 	   15.6705 	    7.0000 	   57.0000 	   34.4196
    0.6332 	   15.7225 	    7.0000 	   57.0000 	   34.5236
    0.6332 	   15.7755 	    7.0000 	   57.0000 	   34.6297
    0.5875 	   15.8295 	    7.0000 	   57.0000 	   34.7377
    0.3281 	   15.8825 	    7.0000 	   57.0000 	   34.8437
    0.6943 	   15.9315 	    7.0000 	   57.0000 	   34.9417
    0.7401 	   15.9795 	    7.0000 	   57.0000 	   35.0377
    0.5570 	   16.0290 	    7.0000 	   57.0000 	   35.1367
    0.5112 	   16.0775 	    7.0000 	   57.0000 	   35.2337
    0.4959 	   16.1255 	    7.0000 	   57.0000 	   35.3297
    0.6790 	   16.1735 	    7.0000 	   57.0000 	   35.4257
    0.6485 	   16.2215 	    7.0000 	   57.0000 	   35.5217
    0.6943 	   16.2725 	    7.0000 	   57.0000 	   35.6237
    0.7095 	   16.3250 	    7.0000 	   57.0000 	   35.7287
    0.6027 	   16.3795 	    7.0000 	   57.0000 	   35.8377
    0.5875 	   16.4325 	    7.0000 	   57.0000 	   35.9437
    0.5722 	   16.4835 	    7.0000 	   57.0000 	   36.0457
    0.6027 	   16.5325 	    7.0000 	   57.0000 	   36.1437
    0.6790 	   16.5815 	    7.0000 	   57.0000 	   36.2417
    0.6485 	   16.6330 	    7.0000 	   57.0000 	   36.3447
    0.6485 	   16.6860 	    7.0000 	   57.0000 	   36.4508
    0.6180 	   16.7350 	    7.0000 	   57.0000 	   36.5488
    0.7095 	   16.7845 	    7.0000 	   57.0000 	   36.6478
    0.6790 	   16.8350 	    7.0000 	   57.0000 	   36.7488
    0.4044 	   16.8850 	    7.0000 	   57.0000 	   36.8488
    0.8011 	   16.9395 	    7.0000 	   57.0000 	   36.9578
    0.5875 	   16.9905 	    7.0000 	   57.0000 	   37.0598
    0.7553 	   17.0420 	    7.0000 	   57.0000 	   37.1628
    0.6332 	   17.0895 	    7.0000 	   57.0000 	   37.2578
    0.7401 	   17.1375 	    7.0000 	   57.0000 	   37.3538
    0.7401 	   17.1865 	    7.0000 	   57.0000 	   37.4518
    0.6485 	   17.2360 	    7.0000 	   57.0000 	   37.5508
    0.6485 	   17.2905 	    7.0000 	   57.0000 	   37.6598
    0.6638 	   17.3450 	    7.0000 	   57.0000 	   37.7688
    0.6790 	   17.4000 	    7.0000 	   57.0000 	   37.8788
    0.7248 	   17.4515 	    7.0000 	   57.0000 	   37.9818
    0.6485 	   17.5025 	    7.0000 	   57.0000 	   38.0839
    0.6943 	   17.5535 	    7.0000 	   57.0000 	   38.1859
    0.6180 	   17.6030 	    7.0000 	   57.0000 	   38.2849
    0.3891 	   17.6585 	    7.0000 	   57.0000 	   38.3959
    0.6180 	   17.7160 	    7.0000 	   57.0000 	   38.5109
    0.5875 	   17.7715 	    7.0000 	   57.0000 	   38.6219
    0.7401 	   17.8270 	    7.0000 	   57.0000 	   38.7329
    0.8011 	   17.8825 	    7.0000 	   57.0000 	   38.8439
    0.7553 	   17.9385 	    7.0000 	   57.0000 	   38.9559
    0.6027 	   17.9900 	    7.0000 	   57.0000 	   39.0589
    0.8011 	   18.0415 	    7.0000 	   57.0000 	   39.1619
    0.5417 	   18.0910 	    7.0000 	   57.0000 	   39.2609
    0.7706 	   18.1400 	    7.0000 	   57.0000 	   39.3589
    0.8164 	   18.1890 	    7.0000 	   57.0000 	   39.4569
    0.6332 	   18.2395 	    7.0000 	   57.0000 	   39.5579
    0.7401 	   18.2920 	    7.0000 	   57.0000 	   39.6629
    0.6790 	   18.3415 	    7.0000 	   57.0000 	   39.7619
    0.4349 	   18.3915 	    7.0000 	   57.0000 	   39.8619
    0.6332 	   18.4410 	    7.0000 	   57.0000 	   39.9610
    0.4959 	   18.4905 	    7.0000 	   57.0000 	   40.0600
    0.6485 	   18.5430 	    7.0000 	   57.0000 	   40.1650
    0.6638 	   18.5920 	    7.0000 	   57.0000 	   40.2630
    0.7401 	   18.6465 	    7.0000 	   57.0000 	   40.3720
    0.9384 	   18.7020 	    7.0000 	   57.0000 	   40.4830
    0.7401 	   18.7585 	    7.0000 	   57.0000 	   40.5960
    0.6943 	   18.8130 	    7.0000 	   57.0000 	   40.7050
    0.4044 	   18.8690 	    7.0000 	   57.0000 	   40.8170
    0.6485 	   18.9245 	    7.0000 	   57.0000 	   40.9280
    0.5875 	   18.9740 	    7.0000 	   57.0000 	   41.0270
    0.4654 	   19.0255 	    7.0000 	   57.0000 	   41.1300
    0.6790 	   19.0775 	    7.0000 	   57.0000 	   41.2340
    0.6485 	   19.1275 	    7.0000 	   57.0000 	   41.3340
    0.5875 	   19.1780 	    7.0000 	   57.0000 	   41.4350
    0.6790 	   19.2290 	    7.0000 	   57.0000 	   41.5370
    0.6943 	   19.2855 	    7.0000 	   57.0000 	   41.6501
    0.8164 	   19.3420 	    7.0000 	   57.0000 	   41.7631
    0.6790 	   19.3985 	    7.0000 	   57.0000 	   41.8761
    0.7706 	   19.4555 	    7.0000 	   57.0000 	   41.9901
    0.5875 	   19.5090 	    7.0000 	   57.0000 	   42.0971
    0.8011 	   19.5625 	    7.0000 	   57.0000 	   42.2041
    0.6638 	   19.6115 	    7.0000 	   57.0000 	   42.3021
    0.7706 	   19.6630 	    7.0000 	   57.0000 	   42.4051
    0.5112 	   19.7200 	    7.0000 	   57.0000 	   42.5191
    0.6485 	   19.7780 	    7.0000 	   57.0000 	   42.6351
    0.7095 	   19.8350 	    7.0000 	   57.0000 	   42.7491
    0.7401 	   19.8915 	    7.0000 	   57.0000 	   42.8621
    0.7095 	   19.9495 	    7.0000 	   57.0000 	   42.9781
    0.5417 	   20.0020 	    7.0000 	   57.0000 	   43.0831
    0.4044 	   20.0575 	    7.0000 	   57.0000 	   43.1941
    0.4959 	   20.1075 	    7.0000 	   57.0000 	   43.2941
    0.6180 	   20.1635 	    7.0000 	   57.0000 	   43.4062
    0.5570 	   20.2195 	    7.0000 	   57.0000 	   43.5182
    0.6332 	   20.2750 	    7.0000 	   57.0000 	   43.6292
    0.6027 	   20.3305 	    7.0000 	   57.0000 	   43.7402
    0.6180 	   20.3860 	    7.0000 	   57.0000 	   43.8512
    0.7401 	   20.4445 	    7.0000 	   57.0000 	   43.9682
    0.8621 	   20.4985 	    7.0000 	   57.0000 	   44.0762
    0.6485 	   20.5540 	    7.0000 	   57.0000 	   44.1872
    0.8469 	   20.6060 	    7.0000 	   57.0000 	   44.2912
    0.6790 	   20.6595 	    7.0000 	   57.0000 	   44.3982
    0.7706 	   20.7175 	    7.0000 	   57.0000 	   44.5142
    0.7401 	   20.7745 	    7.0000 	   57.0000 	   44.6282
    0.8011 	   20.8300 	    7.0000 	   57.0000 	   44.7392
    0.8621 	   20.8890 	    7.0000 	   57.0000 	   44.8572
    0.7553 	   20.9445 	    7.0000 	   57.0000 	   44.9682
    0.5722 	   20.9995 	    7.0000 	   57.0000 	   45.0772
    0.4501 	   21.0530 	    7.0000 	   57.0000 	   45.1843
    0.6180 	   21.1030 	    7.0000 	   57.0000 	   45.2843
    0.7553 	   21.1550 	    7.0000 	   57.0000 	   45.3883
    0.6790 	   21.2105 	    7.0000 	   57.0000 	   45.4993
    0.8316 	   21.2670 	    7.0000 	   57.0000 	   45.6123
    0.8164 	   21.3245 	    7.0000 	   57.0000 	   45.7273
    0.6485 	   21.3815 	    7.0000 	   57.0000 	   45.8413
    0.6638 	   21.4370 	    7.0000 	   57.0000 	   45.9523
    0.7858 	   21.4925 	    7.0000 	   57.0000 	   46.0633
    0.6027 	   21.5455 	    7.0000 	   57.0000 	   46.1693
    0.6638 	   21.5975 	    7.0000 	   57.0000 	   46.2733
    0.6638 	   21.6490 	    7.0000 	   57.0000 	   46.3763
    0.7706 	   21.7025 	    7.0000 	   57.0000 	   46.4833
    0.7858 	   21.7600 	    7.0000 	   57.0000 	   46.5983
    0.6638 	   21.8150 	    7.0000 	   57.0000 	   46.7083
    0.6180 	   21.8665 	    7.0000 	   57.0000 	   46.8113
    0.4501 	   21.9190 	    7.0000 	   57.0000 	   46.9164
    0.8469 	   21.9710 	    7.0000 	   57.0000 	   47.0204
    0.6943 	   22.0245 	    7.0000 	   57.0000 	   47.1274
    0.6638 	   22.0780 	    7.0000 	   57.0000 	   47.2344
    0.6638 	   22.1300 	    7.0000 	   57.0000 	   47.3384
    0.7706 	   22.1855 	    7.0000 	   57.0000 	   47.4494
    0.6943 	   22.2420 	    7.0000 	   57.0000 	   47.5624
    0.7858 	   22.2985 	    7.0000 	   57.0000 	   47.6754
    0.6790 	   22.3555 	    7.0000 	   57.0000 	   47.7894
    0.6943 	   22.4095 	    7.0000 	   57.0000 	   47.8974
    0.8164 	   22.4625 	    7.0000 	   57.0000 	   48.0034
    0.7858 	   22.5165 	    7.0000 	   57.0000 	   48.1114
    0.6943 	   22.5725 	    7.0000 	   57.0000 	   48.2234
    0.7248 	   22.6240 	    7.0000 	   57.0000 	   48.3264
    0.6943 	   22.6795 	    7.0000 	   57.0000 	   48.4374
    0.8011 	   22.7325 	    7.0000 	   57.0000 	   48.5434
    0.5722 	   22.7895 	    7.0000 	   57.0000 	   48.6575
    0.8011 	   22.8490 	    7.0000 	   57.0000 	   48.7765
    0.7858 	   22.9070 	    7.0000 	   57.0000 	   48.8925
    0.8927 	   22.9650 	    7.0000 	   57.0000 	   49.0085
    0.4044 	   23.0190 	    7.0000 	   57.0000 	   49.1165
    0.9079 	   23.0750 	    7.0000 	   57.0000 	   49.2285
    0.8927 	   23.1260 	    7.0000 	   57.0000 	   49.3305
    0.7248 	   23.1840 	    7.0000 	   57.0000 	   49.4465
    0.9079 	   23.2425 	    7.0000 	   57.0000 	   49.5635
    0.7858 	   23.3010 	    7.0000 	   57.0000 	   49.6805
    0.8774 	   23.3605 	    7.0000 	   57.0000 	   49.7995
    0.6332 	   23.4165 	    7.0000 	   57.0000 	   49.9115
    0.6332 	   23.4695 	    7.0000 	   57.0000 	   50.0175
    0.8164 	   23.5235 	    7.0000 	   57.0000 	   50.1255
    0.7858 	   23.5800 	    7.0000 	   57.0000 	   50.2385
    0.9079 	   23.6360 	    7.0000 	   57.0000 	   50.3506
    0.6943 	   23.6940 	    7.0000 	   57.0000 	   50.4666
    0.4654 	   23.7490 	    7.0000 	   57.0000 	   50.5766
    0.8164 	   23.8075 	    7.0000 	   57.0000 	   50.6936
    0.6638 	   23.8675 	    7.0000 	   57.0000 	   50.8136
    0.8011 	   23.9255 	    7.0000 	   57.0000 	   50.9296
    0.8774 	   23.9835 	    7.0000 	   57.0000 	   51.0456
    0.6790 	   24.0405 	    7.0000 	   57.0000 	   51.1596
    0.9079 	   24.0935 	    7.0000 	   57.0000 	   51.2656
    0.8164 	   24.1480 	    7.0000 	   57.0000 	   51.3746
    0.7095 	   24.2080 	    7.0000 	   57.0000 	   51.4946
    0.8774 	   24.2670 	    7.0000 	   57.0000 	   51.6126
    0.7401 	   24.3230 	    7.0000 	   57.0000 	   51.7246
    0.8621 	   24.3795 	    7.0000 	   57.0000 	   51.8376
    0.6943 	   24.4355 	    7.0000 	   57.0000 	   51.9496
    0.7095 	   24.4935 	    7.0000 	   57.0000 	   52.0657
    0.8316 	   24.5500 	    7.0000 	   57.0000 	   52.1787
    0.8927 	   24.6045 	    7.0000 	   57.0000 	   52.2877
    0.8011 	   24.6635 	    7.0000 	   57.0000 	   52.4057
    0.8316 	   24.7245 	    7.0000 	   57.0000 	   52.5277
    0.8469 	   24.7840 	    7.0000 	   57.0000 	   52.6467
    1.0147 	   24.8430 	    7.0000 	   57.0000 	   52.7647
    0.7706 	   24.9025 	    7.0000 	   57.0000 	   52.8837
    0.9232 	   24.9610 	    7.0000 	   57.0000 	   53.0007
    0.8469 	   25.0175 	    7.0000 	   57.0000 	   53.1137
    0.6790 	   25.0735 	    7.0000 	   57.0000 	   53.2257
    0.7401 	   25.1255 	    7.0000 	   57.0000 	   53.3297
    0.8927 	   25.1795 	    7.0000 	   57.0000 	   53.4377
    0.8774 	   25.2345 	    7.0000 	   57.0000 	   53.5477
    0.8316 	   25.2890 	    7.0000 	   57.0000 	   53.6567
    0.8011 	   25.3445 	    7.0000 	   57.0000 	   53.7677
    0.7553 	   25.3990 	    7.0000 	   57.0000 	   53.8768
    0.8621 	   25.4550 	    7.0000 	   57.0000 	   53.9888
    0.8774 	   25.5085 	    7.0000 	   57.0000 	   54.0958
    0.6943 	   25.5655 	    7.0000 	   57.0000 	   54.2098
    0.8469 	   25.6180 	    7.0000 	   57.0000 	   54.3148
    0.7401 	   25.6745 	    7.0000 	   57.0000 	   54.4278
    0.7706 	   25.7315 	    7.0000 	   57.0000 	   54.5418
    0.8469 	   25.7930 	    7.0000 	   57.0000 	   54.6648
    0.9384 	   25.8525 	    7.0000 	   57.0000 	   54.7838
    0.7401 	   25.9125 	    7.0000 	   57.0000 	   54.9038
    0.6943 	   25.9735 	    7.0000 	   57.0000 	   55.0258
    0.8469 	   26.0285 	    7.0000 	   57.0000 	   55.1358
    1.1368 	   26.0850 	    7.0000 	   57.0000 	   55.2488
    0.8621 	   26.1380 	    7.0000 	   57.0000 	   55.3548
    0.6332 	   26.1945 	    7.0000 	   57.0000 	   55.4678
    0.8927 	   26.2565 	    7.0000 	   57.0000 	   55.5919
    0.8316 	   26.3130 	    7.0000 	   57.0000 	   55.7049
    0.8011 	   26.3675 	    7.0000 	   57.0000 	   55.8139
    0.8469 	   26.4205 	    7.0000 	   57.0000 	   55.9199
    0.8011 	   26.4780 	    7.0000 	   57.0000 	   56.0349
    0.8011 	   26.5330 	    7.0000 	   57.0000 	   56.1449
    0.7401 	   26.5900 	    7.0000 	   57.0000 	   56.2589
    1.0758 	   26.6415 	    7.0000 	   57.0000 	   56.3619
    0.7706 	   26.6990 	    7.0000 	   57.0000 	   56.4769
    0.8621 	   26.7560 	    7.0000 	   57.0000 	   56.5909
    0.7553 	   26.8160 	    7.0000 	   57.0000 	   56.7109
    0.8774 	   26.8745 	    7.0000 	   57.0000 	   56.8279
    0.8316 	   26.9330 	    7.0000 	   57.0000 	   56.9449
    0.8774 	   26.9910 	    7.0000 	   57.0000 	   57.0609
    0.9232 	   27.0480 	    7.0000 	   57.0000 	   57.1749
    0.9079 	   27.1030 	    7.0000 	   57.0000 	   57.2849
    0.9079 	   27.1555 	    7.0000 	   57.0000 	   57.3900
    0.9079 	   27.2085 	    7.0000 	   57.0000 	   57.4960
    0.8316 	   27.2620 	    7.0000 	   57.0000 	   57.6030
    0.7553 	   27.3140 	    7.0000 	   57.0000 	   57.7070
    0.8774 	   27.3670 	    7.0000 	   57.0000 	   57.8130
    0.5570 	   27.4205 	    7.0000 	   57.0000 	   57.9200
    0.8469 	   27.4730 	    7.0000 	   57.0000 	   58.0250
    0.9232 	   27.5260 	    7.0000 	   57.0000 	   58.1310
    1.0300 	   27.5830 	    7.0000 	   57.0000 	   58.2450
    1.0758 	   27.6370 	    7.0000 	   57.0000 	   58.3530
    0.7095 	   27.6970 	    7.0000 	   57.0000 	   58.4730
    1.0452 	   27.7560 	    7.0000 	   57.0000 	   58.5910
    0.8469 	   27.8145 	    7.0000 	   57.0000 	   58.7080
    0.8774 	   27.8730 	    7.0000 	   57.0000 	   58.8250
    0.9689 	   27.9330 	    7.0000 	   57.0000 	   58.9450
    0.8164 	   27.9930 	    7.0000 	   57.0000 	   59.0650
    0.6332 	   28.0520 	    7.0000 	   57.0000 	   59.1831
    0.6332 	   28.1045 	    7.0000 	   57.0000 	   59.2881
    0.8621 	   28.1600 	    7.0000 	   57.0000 	   59.3991
    0.8316 	   28.2200 	    7.0000 	   57.0000 	   59.5191
    0.9079 	   28.2815 	    7.0000 	   57.0000 	   59.6421
    1.0758 	   28.3410 	    7.0000 	   57.0000 	   59.7611
    0.7706 	   28.3995 	    7.0000 	   57.0000 	   59.8781
    0.9384 	   28.4555 	    7.0000 	   57.0000 	   59.9901
    0.9537 	   28.5090 	    7.0000 	   58.0000 	    0.0971
    0.9384 	   28.5665 	    7.0000 	   58.0000 	    0.2121
    0.9842 	   28.6200 	    7.0000 	   58.0000 	    0.3191
    0.8621 	   28.6775 	    7.0000 	   58.0000 	    0.4341
    0.9384 	   28.7385 	    7.0000 	   58.0000 	    0.5561
    0.9995 	   28.7970 	    7.0000 	   58.0000 	    0.6731
    0.9537 	   28.8545 	    7.0000 	   58.0000 	    0.7881
    0.8621 	   28.9115 	    7.0000 	   58.0000 	    0.9022
    0.9232 	   28.9720 	    7.0000 	   58.0000 	    1.0232
    0.9384 	   29.0305 	    7.0000 	   58.0000 	    1.1402
    0.8774 	   29.0875 	    7.0000 	   58.0000 	    1.2542
    0.9384 	   29.1405 	    7.0000 	   58.0000 	    1.3602
    1.1215 	   29.2015 	    7.0000 	   58.0000 	    1.4822
    0.9537 	   29.2600 	    7.0000 	   58.0000 	    1.5992
    0.9232 	   29.3165 	    7.0000 	   58.0000 	    1.7122
    0.8621 	   29.3710 	    7.0000 	   58.0000 	    1.8212
    0.9079 	   29.4240 	    7.0000 	   58.0000 	    1.9272
    0.7858 	   29.4795 	    7.0000 	   58.0000 	    2.0382
    0.9384 	   29.5340 	    7.0000 	   58.0000 	    2.1472
    0.9079 	   29.5910 	    7.0000 	   58.0000 	    2.2612
    1.0605 	   29.6435 	    7.0000 	   58.0000 	    2.3662
    0.9842 	   29.7020 	    7.0000 	   58.0000 	    2.4822
    0.9842 	   29.7630 	    7.0000 	   58.0000 	    2.6043
    1.0605 	   29.8235 	    7.0000 	   58.0000 	    2.7253
    0.8316 	   29.8855 	    7.0000 	   58.0000 	    2.8493
    0.8927 	   29.9480 	    7.0000 	   58.0000 	    2.9743
    0.9995 	   30.0080 	    7.0000 	   58.0000 	    3.0943
    0.8774 	   30.0655 	    7.0000 	   58.0000 	    3.2093
    0.8621 	   30.1185 	    7.0000 	   58.0000 	    3.3153
    0.9384 	   30.1750 	    7.0000 	   58.0000 	    3.4283
    1.0300 	   30.2360 	    7.0000 	   58.0000 	    3.5503
    0.8164 	   30.2960 	    7.0000 	   58.0000 	    3.6703
    0.9537 	   30.3565 	    7.0000 	   58.0000 	    3.7913
    0.8469 	   30.4130 	    7.0000 	   58.0000 	    3.9043
    1.0300 	   30.4675 	    7.0000 	   58.0000 	    4.0133
    1.0147 	   30.5250 	    7.0000 	   58.0000 	    4.1283
    0.6485 	   30.5810 	    7.0000 	   58.0000 	    4.2403
    0.9079 	   30.6350 	    7.0000 	   58.0000 	    4.3484
    1.0300 	   30.6930 	    7.0000 	   58.0000 	    4.4644
    0.9079 	   30.7525 	    7.0000 	   58.0000 	    4.5834
    0.8774 	   30.8140 	    7.0000 	   58.0000 	    4.7064
    0.9232 	   30.8760 	    7.0000 	   58.0000 	    4.8304
    1.0452 	   30.9365 	    7.0000 	   58.0000 	    4.9514
    0.9842 	   30.9980 	    7.0000 	   58.0000 	    5.0744
    1.1063 	   31.0570 	    7.0000 	   58.0000 	    5.1924
    1.0452 	   31.1115 	    7.0000 	   58.0000 	    5.3014
    1.1063 	   31.1655 	    7.0000 	   58.0000 	    5.4094
    0.9384 	   31.2255 	    7.0000 	   58.0000 	    5.5294
    1.0452 	   31.2810 	    7.0000 	   58.0000 	    5.6404
    0.8469 	   31.3360 	    7.0000 	   58.0000 	    5.7504
    1.0605 	   31.3950 	    7.0000 	   58.0000 	    5.8684
    0.9079 	   31.4565 	    7.0000 	   58.0000 	    5.9914
    1.0300 	   31.5165 	    7.0000 	   58.0000 	    6.1115
    0.9232 	   31.5730 	    7.0000 	   58.0000 	    6.2245
    0.6638 	   31.6280 	    7.0000 	   58.0000 	    6.3345
    1.0147 	   31.6850 	    7.0000 	   58.0000 	    6.4485
    1.0910 	   31.7415 	    7.0000 	   58.0000 	    6.5615
    0.9232 	   31.8010 	    7.0000 	   58.0000 	    6.6805
    0.8469 	   31.8570 	    7.0000 	   58.0000 	    6.7925
    0.9995 	   31.9150 	    7.0000 	   58.0000 	    6.9085
    1.0910 	   31.9750 	    7.0000 	   58.0000 	    7.0285
    1.1215 	   32.0325 	    7.0000 	   58.0000 	    7.1435
    1.1521 	   32.0900 	    7.0000 	   58.0000 	    7.2585
    1.0147 	   32.1445 	    7.0000 	   58.0000 	    7.3675
    0.9537 	   32.2015 	    7.0000 	   58.0000 	    7.4815
    1.1215 	   32.2575 	    7.0000 	   58.0000 	    7.5935
    0.9842 	   32.3125 	    7.0000 	   58.0000 	    7.7035
    0.8927 	   32.3705 	    7.0000 	   58.0000 	    7.8196
    1.0605 	   32.4320 	    7.0000 	   58.0000 	    7.9426
    1.0452 	   32.4945 	    7.0000 	   58.0000 	    8.0676
    1.0300 	   32.5545 	    7.0000 	   58.0000 	    8.1876
    1.0758 	   32.6125 	    7.0000 	   58.0000 	    8.3036
    1.0910 	   32.6670 	    7.0000 	   58.0000 	    8.4126
    0.9537 	   32.7255 	    7.0000 	   58.0000 	    8.5296
    0.9689 	   32.7830 	    7.0000 	   58.0000 	    8.6446
    1.0452 	   32.8425 	    7.0000 	   58.0000 	    8.7636
    1.1826 	   32.9025 	    7.0000 	   58.0000 	    8.8836
    0.9384 	   32.9645 	    7.0000 	   58.0000 	    9.0076
    1.0910 	   33.0240 	    7.0000 	   58.0000 	    9.1266
    0.9537 	   33.0825 	    7.0000 	   58.0000 	    9.2436
    1.0758 	   33.1380 	    7.0000 	   58.0000 	    9.3546
    0.9842 	   33.1985 	    7.0000 	   58.0000 	    9.4756
    1.0605 	   33.2600 	    7.0000 	   58.0000 	    9.5987
    1.0452 	   33.3230 	    7.0000 	   58.0000 	    9.7247
    1.0758 	   33.3855 	    7.0000 	   58.0000 	    9.8497
    0.8621 	   33.4465 	    7.0000 	   58.0000 	    9.9717
    1.1673 	   33.5090 	    7.0000 	   58.0000 	   10.0967
    0.9537 	   33.5660 	    7.0000 	   58.0000 	   10.2107
    0.9995 	   33.6220 	    7.0000 	   58.0000 	   10.3227
    1.1826 	   33.6780 	    7.0000 	   58.0000 	   10.4347
    1.1063 	   33.7365 	    7.0000 	   58.0000 	   10.5517
    1.0758 	   33.7985 	    7.0000 	   58.0000 	   10.6757
    0.9995 	   33.8590 	    7.0000 	   58.0000 	   10.7967
    1.0605 	   33.9210 	    7.0000 	   58.0000 	   10.9207
    1.1978 	   33.9810 	    7.0000 	   58.0000 	   11.0407
    1.1368 	   34.0400 	    7.0000 	   58.0000 	   11.1587
    1.1063 	   34.0960 	    7.0000 	   58.0000 	   11.2707
    1.2741 	   34.1515 	    7.0000 	   58.0000 	   11.3818
    1.1368 	   34.2080 	    7.0000 	   58.0000 	   11.4948
    0.7706 	   34.2690 	    7.0000 	   58.0000 	   11.6168
    1.0758 	   34.3325 	    7.0000 	   58.0000 	   11.7438
    0.9537 	   34.3955 	    7.0000 	   58.0000 	   11.8698
    1.2589 	   34.4575 	    7.0000 	   58.0000 	   11.9938
    1.1673 	   34.5190 	    7.0000 	   58.0000 	   12.1168
    0.9995 	   34.5770 	    7.0000 	   58.0000 	   12.2328
    1.0605 	   34.6345 	    7.0000 	   58.0000 	   12.3478
    1.0758 	   34.6925 	    7.0000 	   58.0000 	   12.4638
    1.0758 	   34.7510 	    7.0000 	   58.0000 	   12.5808
    1.0605 	   34.8125 	    7.0000 	   58.0000 	   12.7038
    1.2894 	   34.8745 	    7.0000 	   58.0000 	   12.8278
    1.1368 	   34.9370 	    7.0000 	   58.0000 	   12.9528
    1.1978 	   35.0000 	    7.0000 	   58.0000 	   13.0789
    1.1673 	   35.0605 	    7.0000 	   58.0000 	   13.1999
    1.1521 	   35.1190 	    7.0000 	   58.0000 	   13.3169
    1.1063 	   35.1740 	    7.0000 	   58.0000 	   13.4269
    1.2131 	   35.2305 	    7.0000 	   58.0000 	   13.5399
    1.1368 	   35.2880 	    7.0000 	   58.0000 	   13.6549
    1.1521 	   35.3470 	    7.0000 	   58.0000 	   13.7729
    1.1673 	   35.4055 	    7.0000 	   58.0000 	   13.8899
    1.2741 	   35.4680 	    7.0000 	   58.0000 	   14.0149
    1.3352 	   35.5305 	    7.0000 	   58.0000 	   14.1399
    1.0605 	   35.5885 	    7.0000 	   58.0000 	   14.2559
    1.1673 	   35.6460 	    7.0000 	   58.0000 	   14.3709
    1.3962 	   35.7065 	    7.0000 	   58.0000 	   14.4919
    1.0300 	   35.7700 	    7.0000 	   58.0000 	   14.6189
    1.1521 	   35.8320 	    7.0000 	   58.0000 	   14.7429
    1.2589 	   35.8920 	    7.0000 	   58.0000 	   14.8620
    1.2589 	   35.9510 	    7.0000 	   58.0000 	   14.9810
    1.1063 	   36.0110 	    7.0000 	   58.0000 	   15.1010
    1.1368 	   36.0700 	    7.0000 	   58.0000 	   15.2190
    1.1978 	   36.1270 	    7.0000 	   58.0000 	   15.3330
    1.1826 	   36.1835 	    7.0000 	   58.0000 	   15.4460
    1.3809 	   36.2400 	    7.0000 	   58.0000 	   15.5590
    1.2284 	   36.3025 	    7.0000 	   58.0000 	   15.6840
    1.1215 	   36.3660 	    7.0000 	   58.0000 	   15.8110
    1.1826 	   36.4275 	    7.0000 	   58.0000 	   15.9340
    1.2436 	   36.4910 	    7.0000 	   58.0000 	   16.0610
    0.8316 	   36.5500 	    7.0000 	   58.0000 	   16.1790
    1.2436 	   36.6085 	    7.0000 	   58.0000 	   16.2960
    1.1521 	   36.6650 	    7.0000 	   58.0000 	   16.4090
    1.3199 	   36.7285 	    7.0000 	   58.0000 	   16.5360
    1.1521 	   36.7905 	    7.0000 	   58.0000 	   16.6601
    1.3199 	   36.8520 	    7.0000 	   58.0000 	   16.7831
    1.1368 	   36.9100 	    7.0000 	   58.0000 	   16.8991
    1.2436 	   36.9715 	    7.0000 	   58.0000 	   17.0221
    1.1826 	   37.0375 	    7.0000 	   58.0000 	   17.1541
    1.1978 	   37.0975 	    7.0000 	   58.0000 	   17.2741
    1.2894 	   37.1545 	    7.0000 	   58.0000 	   17.3881
    1.1521 	   37.2125 	    7.0000 	   58.0000 	   17.5041
    1.2131 	   37.2740 	    7.0000 	   58.0000 	   17.6271
    1.3199 	   37.3355 	    7.0000 	   58.0000 	   17.7501
    1.3809 	   37.3975 	    7.0000 	   58.0000 	   17.8741
    1.2436 	   37.4640 	    7.0000 	   58.0000 	   18.0071
    1.3657 	   37.5290 	    7.0000 	   58.0000 	   18.1371
    1.2894 	   37.5925 	    7.0000 	   58.0000 	   18.2641
    1.1978 	   37.6495 	    7.0000 	   58.0000 	   18.3782
    1.3352 	   37.7065 	    7.0000 	   58.0000 	   18.4922
    1.2436 	   37.7685 	    7.0000 	   58.0000 	   18.6162
    1.3657 	   37.8320 	    7.0000 	   58.0000 	   18.7432
    1.3352 	   37.8945 	    7.0000 	   58.0000 	   18.8682
    1.0910 	   37.9585 	    7.0000 	   58.0000 	   18.9962
    1.1368 	   38.0200 	    7.0000 	   58.0000 	   19.1192
    1.3199 	   38.0815 	    7.0000 	   58.0000 	   19.2422
    1.3962 	   38.1395 	    7.0000 	   58.0000 	   19.3582
    1.1978 	   38.1970 	    7.0000 	   58.0000 	   19.4732
    1.2436 	   38.2595 	    7.0000 	   58.0000 	   19.5982
    1.2741 	   38.3210 	    7.0000 	   58.0000 	   19.7212
    1.2589 	   38.3840 	    7.0000 	   58.0000 	   19.8472
    1.1826 	   38.4455 	    7.0000 	   58.0000 	   19.9692
    1.1978 	   38.5045 	    7.0000 	   58.0000 	   20.0873
    1.2589 	   38.5620 	    7.0000 	   58.0000 	   20.2023
    1.1978 	   38.6210 	    7.0000 	   58.0000 	   20.3203
    1.2284 	   38.6765 	    7.0000 	   58.0000 	   20.4313
    1.5030 	   38.7320 	    7.0000 	   58.0000 	   20.5423
    1.2284 	   38.7895 	    7.0000 	   58.0000 	   20.6573
    1.3352 	   38.8470 	    7.0000 	   58.0000 	   20.7723
    1.2741 	   38.9045 	    7.0000 	   58.0000 	   20.8873
    1.4115 	   38.9630 	    7.0000 	   58.0000 	   21.0043
    1.3504 	   39.0260 	    7.0000 	   58.0000 	   21.1303
    1.2436 	   39.0860 	    7.0000 	   58.0000 	   21.2503
    1.3962 	   39.1440 	    7.0000 	   58.0000 	   21.3663
    1.5946 	   39.2015 	    7.0000 	   58.0000 	   21.4813
    1.3046 	   39.2655 	    7.0000 	   58.0000 	   21.6093
    1.3962 	   39.3275 	    7.0000 	   58.0000 	   21.7333
    1.4725 	   39.3915 	    7.0000 	   58.0000 	   21.8614
    1.4267 	   39.4515 	    7.0000 	   58.0000 	   21.9814
    1.3962 	   39.5120 	    7.0000 	   58.0000 	   22.1024
    1.2894 	   39.5750 	    7.0000 	   58.0000 	   22.2284
    1.3199 	   39.6370 	    7.0000 	   58.0000 	   22.3524
    1.4267 	   39.6955 	    7.0000 	   58.0000 	   22.4694
    1.3962 	   39.7585 	    7.0000 	   58.0000 	   22.5954
    1.3352 	   39.8220 	    7.0000 	   58.0000 	   22.7224
    1.2589 	   39.8850 	    7.0000 	   58.0000 	   22.8484
    1.3504 	   39.9435 	    7.0000 	   58.0000 	   22.9654
    1.5030 	   40.0035 	    7.0000 	   58.0000 	   23.0854
    1.4115 	   40.0660 	    7.0000 	   58.0000 	   23.2104
    1.4878 	   40.1255 	    7.0000 	   58.0000 	   23.3294
    1.2741 	   40.1635 	    7.0000 	   58.0000 	   23.4054