File: instron/independence/size/bad_l15w3_40_30/b_l15w1_40_30.txt
Thayer School of Engineering        Instron 4442 Mechanical Testing System
7/5/2018 7:28:53 AM

  Force (N)	Extension (mm)	Not Used	Not Used	Not Used	     Hour	    Minute	    Second
    0.5417 	    0.5090 	    7.0000 	   30.0000 	   48.2568
    0.4501 	    0.5895 	    7.0000 	   30.0000 	   48.4178
    0.6180 	    0.6670 	    7.0000 	   30.0000 	   48.5728
    0.4501 	    0.7380 	    7.0000 	   30.0000 	   48.7148
    0.4349 	    0.8125 	    7.0000 	   30.0000 	   48.8638
    0.6027 	    0.8685 	    7.0000 	   30.0000 	   48.9758
    0.5112 	    0.9370 	    7.0000 	   30.0000 	   49.1128
    0.5112 	    1.0035 	    7.0000 	   30.0000 	   49.2458
    0.4349 	    1.0835 	    7.0000 	   30.0000 	   49.4058
    0.4349 	    1.1595 	    7.0000 	   30.0000 	   49.5578
    0.4501 	    1.2300 	    7.0000 	   30.0000 	   49.6989
    0.4501 	    1.2960 	    7.0000 	   30.0000 	   49.8309
    0.4349 	    1.3720 	    7.0000 	   30.0000 	   49.9829
    0.5570 	    1.4380 	    7.0000 	   30.0000 	   50.1149
    0.4044 	    1.5045 	    7.0000 	   30.0000 	   50.2479
    0.4959 	    1.5720 	    7.0000 	   30.0000 	   50.3829
    0.6790 	    1.6320 	    7.0000 	   30.0000 	   50.5029
    0.7553 	    1.7005 	    7.0000 	   30.0000 	   50.6399
    0.4044 	    1.7575 	    7.0000 	   30.0000 	   50.7539
    0.5417 	    1.8005 	    7.0000 	   30.0000 	   50.8399
    0.3281 	    1.8485 	    7.0000 	   30.0000 	   50.9359
    0.6180 	    1.8965 	    7.0000 	   30.0000 	   51.0319
    0.4044 	    1.9425 	    7.0000 	   30.0000 	   51.1239
    0.5112 	    1.9885 	    7.0000 	   30.0000 	   51.2159
    0.5112 	    2.0345 	    7.0000 	   30.0000 	   51.3079
    0.5264 	    2.0815 	    7.0000 	   30.0000 	   51.4020
    0.4501 	    2.1230 	    7.0000 	   30.0000 	   51.4850
    0.5570 	    2.1655 	    7.0000 	   30.0000 	   51.5700
    0.5570 	    2.2090 	    7.0000 	   30.0000 	   51.6570
    0.4807 	    2.2495 	    7.0000 	   30.0000 	   51.7380
    0.4196 	    2.3045 	    7.0000 	   30.0000 	   51.8480
    0.6180 	    2.3490 	    7.0000 	   30.0000 	   51.9370
    0.4807 	    2.3970 	    7.0000 	   30.0000 	   52.0330
    0.4501 	    2.4435 	    7.0000 	   30.0000 	   52.1260
    0.4349 	    2.4935 	    7.0000 	   30.0000 	   52.2260
    0.6180 	    2.5410 	    7.0000 	   30.0000 	   52.3210
    0.4501 	    2.5910 	    7.0000 	   30.0000 	   52.4210
    0.6027 	    2.6375 	    7.0000 	   30.0000 	   52.5140
    0.6485 	    2.6815 	    7.0000 	   30.0000 	   52.6020
    0.5112 	    2.7220 	    7.0000 	   30.0000 	   52.6830
    0.5570 	    2.7605 	    7.0000 	   30.0000 	   52.7600
    0.4807 	    2.8070 	    7.0000 	   30.0000 	   52.8530
    0.4654 	    2.8525 	    7.0000 	   30.0000 	   52.9440
    0.4959 	    2.9005 	    7.0000 	   30.0000 	   53.0400
    0.6180 	    2.9485 	    7.0000 	   30.0000 	   53.1361
    0.4959 	    2.9940 	    7.0000 	   30.0000 	   53.2271
    0.5112 	    3.0420 	    7.0000 	   30.0000 	   53.3231
    0.6180 	    3.0910 	    7.0000 	   30.0000 	   53.4211
    0.5417 	    3.1365 	    7.0000 	   30.0000 	   53.5121
    0.2518 	    3.1780 	    7.0000 	   30.0000 	   53.5951
    0.4044 	    3.2185 	    7.0000 	   30.0000 	   53.6761
    0.5112 	    3.2585 	    7.0000 	   30.0000 	   53.7561
    0.5570 	    3.2990 	    7.0000 	   30.0000 	   53.8371
    0.5112 	    3.3430 	    7.0000 	   30.0000 	   53.9251
    0.4349 	    3.3915 	    7.0000 	   30.0000 	   54.0221
    0.5112 	    3.4385 	    7.0000 	   30.0000 	   54.1161
    0.4349 	    3.4860 	    7.0000 	   30.0000 	   54.2101
    0.6485 	    3.5335 	    7.0000 	   30.0000 	   54.3061
    0.3891 	    3.5805 	    7.0000 	   30.0000 	   54.4001
    0.4959 	    3.6270 	    7.0000 	   30.0000 	   54.4931
    0.3738 	    3.6705 	    7.0000 	   30.0000 	   54.5801
    0.5570 	    3.7130 	    7.0000 	   30.0000 	   54.6651
    0.4196 	    3.7540 	    7.0000 	   30.0000 	   54.7471
    0.4959 	    3.7955 	    7.0000 	   30.0000 	   54.8301
    0.5417 	    3.8370 	    7.0000 	   30.0000 	   54.9132
    0.4807 	    3.8830 	    7.0000 	   30.0000 	   55.0052
    0.4196 	    3.9300 	    7.0000 	   30.0000 	   55.0992
    0.4959 	    3.9760 	    7.0000 	   30.0000 	   55.1912
    0.5875 	    4.0230 	    7.0000 	   30.0000 	   55.2852
    0.5112 	    4.0695 	    7.0000 	   30.0000 	   55.3782
    0.6180 	    4.1160 	    7.0000 	   30.0000 	   55.4712
    0.5417 	    4.1590 	    7.0000 	   30.0000 	   55.5572
    0.5875 	    4.2000 	    7.0000 	   30.0000 	   55.6392
    0.4959 	    4.2415 	    7.0000 	   30.0000 	   55.7222
    0.5722 	    4.2825 	    7.0000 	   30.0000 	   55.8042
    0.2060 	    4.3275 	    7.0000 	   30.0000 	   55.8942
    0.5570 	    4.3765 	    7.0000 	   30.0000 	   55.9922
    0.5264 	    4.4235 	    7.0000 	   30.0000 	   56.0862
    0.7401 	    4.4725 	    7.0000 	   30.0000 	   56.1842
    0.4959 	    4.5190 	    7.0000 	   30.0000 	   56.2772
    0.6332 	    4.5655 	    7.0000 	   30.0000 	   56.3702
    0.4654 	    4.6125 	    7.0000 	   30.0000 	   56.4642
    0.5570 	    4.6570 	    7.0000 	   30.0000 	   56.5532
    0.4196 	    4.6985 	    7.0000 	   30.0000 	   56.6363
    0.4349 	    4.7405 	    7.0000 	   30.0000 	   56.7203
    0.4959 	    4.7810 	    7.0000 	   30.0000 	   56.8013
    0.6027 	    4.8245 	    7.0000 	   30.0000 	   56.8883
    0.3738 	    4.8725 	    7.0000 	   30.0000 	   56.9843
    0.4654 	    4.9190 	    7.0000 	   30.0000 	   57.0773
    0.5112 	    4.9665 	    7.0000 	   30.0000 	   57.1723
    0.4807 	    5.0120 	    7.0000 	   30.0000 	   57.2633
    0.5112 	    5.0585 	    7.0000 	   30.0000 	   57.3563
    0.5722 	    5.1070 	    7.0000 	   30.0000 	   57.4533
    0.5722 	    5.1565 	    7.0000 	   30.0000 	   57.5523
    0.5875 	    5.1995 	    7.0000 	   30.0000 	   57.6383
    0.4959 	    5.2415 	    7.0000 	   30.0000 	   57.7223
    0.6027 	    5.2850 	    7.0000 	   30.0000 	   57.8093
    0.4807 	    5.3335 	    7.0000 	   30.0000 	   57.9063
    0.4349 	    5.3805 	    7.0000 	   30.0000 	   58.0003
    0.2823 	    5.4260 	    7.0000 	   30.0000 	   58.0913
    0.5722 	    5.4745 	    7.0000 	   30.0000 	   58.1883
    0.6332 	    5.5225 	    7.0000 	   30.0000 	   58.2843
    0.4654 	    5.5710 	    7.0000 	   30.0000 	   58.3814
    0.4196 	    5.6170 	    7.0000 	   30.0000 	   58.4734
    0.4654 	    5.6625 	    7.0000 	   30.0000 	   58.5644
    0.5264 	    5.7050 	    7.0000 	   30.0000 	   58.6494
    0.4501 	    5.7475 	    7.0000 	   30.0000 	   58.7334
    0.5570 	    5.7915 	    7.0000 	   30.0000 	   58.8224
    0.4044 	    5.8390 	    7.0000 	   30.0000 	   58.9174
    0.5417 	    5.8850 	    7.0000 	   30.0000 	   59.0094
    0.4501 	    5.9335 	    7.0000 	   30.0000 	   59.1064
    0.5112 	    5.9830 	    7.0000 	   30.0000 	   59.2054
    0.6332 	    6.0310 	    7.0000 	   30.0000 	   59.3014
    0.5722 	    6.0805 	    7.0000 	   30.0000 	   59.4004
    0.5264 	    6.1255 	    7.0000 	   30.0000 	   59.4904
    0.4349 	    6.1700 	    7.0000 	   30.0000 	   59.5794
    0.6332 	    6.2125 	    7.0000 	   30.0000 	   59.6644
    0.5570 	    6.2545 	    7.0000 	   30.0000 	   59.7484
    0.5264 	    6.3015 	    7.0000 	   30.0000 	   59.8424
    0.6790 	    6.3510 	    7.0000 	   30.0000 	   59.9414
    0.4807 	    6.3990 	    7.0000 	   31.0000 	    0.0364
    0.6027 	    6.4475 	    7.0000 	   31.0000 	    0.1345
    0.6638 	    6.4965 	    7.0000 	   31.0000 	    0.2325
    0.5722 	    6.5455 	    7.0000 	   31.0000 	    0.3305
    0.5570 	    6.5930 	    7.0000 	   31.0000 	    0.4255
    0.4501 	    6.6415 	    7.0000 	   31.0000 	    0.5225
    0.5722 	    6.6850 	    7.0000 	   31.0000 	    0.6095
    0.6485 	    6.7275 	    7.0000 	   31.0000 	    0.6945
    0.5722 	    6.7695 	    7.0000 	   31.0000 	    0.7785
    0.4959 	    6.8135 	    7.0000 	   31.0000 	    0.8665
    0.5112 	    6.8630 	    7.0000 	   31.0000 	    0.9655
    0.5570 	    6.9115 	    7.0000 	   31.0000 	    1.0625
    0.4044 	    6.9590 	    7.0000 	   31.0000 	    1.1575
    0.6180 	    7.0080 	    7.0000 	   31.0000 	    1.2555
    0.6332 	    7.0600 	    7.0000 	   31.0000 	    1.3595
    0.5570 	    7.1080 	    7.0000 	   31.0000 	    1.4555
    0.6485 	    7.1570 	    7.0000 	   31.0000 	    1.5535
    0.5112 	    7.2025 	    7.0000 	   31.0000 	    1.6445
    0.4654 	    7.2460 	    7.0000 	   31.0000 	    1.7315
    0.5417 	    7.2875 	    7.0000 	   31.0000 	    1.8145
    0.6180 	    7.3320 	    7.0000 	   31.0000 	    1.9036
    0.5722 	    7.3800 	    7.0000 	   31.0000 	    1.9996
    0.6027 	    7.4275 	    7.0000 	   31.0000 	    2.0946
    0.5112 	    7.4775 	    7.0000 	   31.0000 	    2.1946
    0.4654 	    7.5270 	    7.0000 	   31.0000 	    2.2936
    0.6332 	    7.5750 	    7.0000 	   31.0000 	    2.3896
    0.6027 	    7.6235 	    7.0000 	   31.0000 	    2.4866
    0.4654 	    7.6730 	    7.0000 	   31.0000 	    2.5856
    0.6180 	    7.7185 	    7.0000 	   31.0000 	    2.6766
    0.5875 	    7.7625 	    7.0000 	   31.0000 	    2.7646
    0.5875 	    7.8050 	    7.0000 	   31.0000 	    2.8496
    0.4959 	    7.8555 	    7.0000 	   31.0000 	    2.9506
    0.4807 	    7.9030 	    7.0000 	   31.0000 	    3.0456
    0.5264 	    7.9510 	    7.0000 	   31.0000 	    3.1416
    0.4654 	    8.0015 	    7.0000 	   31.0000 	    3.2426
    0.4501 	    8.0520 	    7.0000 	   31.0000 	    3.3436
    0.4654 	    8.0985 	    7.0000 	   31.0000 	    3.4366
    0.5417 	    8.1485 	    7.0000 	   31.0000 	    3.5366
    0.5875 	    8.1935 	    7.0000 	   31.0000 	    3.6257
    0.7401 	    8.2410 	    7.0000 	   31.0000 	    3.7207
    0.6638 	    8.2840 	    7.0000 	   31.0000 	    3.8067
    0.5264 	    8.3275 	    7.0000 	   31.0000 	    3.8937
    0.2365 	    8.3800 	    7.0000 	   31.0000 	    3.9987
    0.4959 	    8.4290 	    7.0000 	   31.0000 	    4.0967
    0.5722 	    8.4790 	    7.0000 	   31.0000 	    4.1967
    0.5570 	    8.5285 	    7.0000 	   31.0000 	    4.2957
    0.3891 	    8.5790 	    7.0000 	   31.0000 	    4.3967
    0.5875 	    8.6275 	    7.0000 	   31.0000 	    4.4937
    0.7095 	    8.6770 	    7.0000 	   31.0000 	    4.5927
    0.6180 	    8.7230 	    7.0000 	   31.0000 	    4.6847
    0.4349 	    8.7670 	    7.0000 	   31.0000 	    4.7727
    0.5264 	    8.8100 	    7.0000 	   31.0000 	    4.8587
    0.6332 	    8.8610 	    7.0000 	   31.0000 	    4.9607
    0.4807 	    8.9100 	    7.0000 	   31.0000 	    5.0587
    0.4501 	    8.9605 	    7.0000 	   31.0000 	    5.1597
    0.4959 	    9.0095 	    7.0000 	   31.0000 	    5.2577
    0.5264 	    9.0595 	    7.0000 	   31.0000 	    5.3578
    0.6485 	    9.1075 	    7.0000 	   31.0000 	    5.4538
    0.6943 	    9.1580 	    7.0000 	   31.0000 	    5.5548
    0.4807 	    9.2035 	    7.0000 	   31.0000 	    5.6458
    0.4807 	    9.2515 	    7.0000 	   31.0000 	    5.7418
    0.4654 	    9.2960 	    7.0000 	   31.0000 	    5.8298
    0.5570 	    9.3460 	    7.0000 	   31.0000 	    5.9308
    0.6790 	    9.3955 	    7.0000 	   31.0000 	    6.0298
    0.4044 	    9.4475 	    7.0000 	   31.0000 	    6.1338
    0.4044 	    9.4960 	    7.0000 	   31.0000 	    6.2308
    0.4959 	    9.5470 	    7.0000 	   31.0000 	    6.3328
    0.5722 	    9.5985 	    7.0000 	   31.0000 	    6.4358
    0.4654 	    9.6535 	    7.0000 	   31.0000 	    6.5458
    0.5264 	    9.6990 	    7.0000 	   31.0000 	    6.6368
    0.5417 	    9.7450 	    7.0000 	   31.0000 	    6.7288
    0.6027 	    9.7890 	    7.0000 	   31.0000 	    6.8168
    0.5112 	    9.8395 	    7.0000 	   31.0000 	    6.9178
    0.5570 	    9.8925 	    7.0000 	   31.0000 	    7.0238
    0.6332 	    9.9415 	    7.0000 	   31.0000 	    7.1219
    0.5570 	    9.9915 	    7.0000 	   31.0000 	    7.2219
    0.6638 	   10.0425 	    7.0000 	   31.0000 	    7.3239
    0.3586 	   10.0925 	    7.0000 	   31.0000 	    7.4239
    0.5417 	   10.1425 	    7.0000 	   31.0000 	    7.5239
    0.5112 	   10.1895 	    7.0000 	   31.0000 	    7.6179
    0.4654 	   10.2350 	    7.0000 	   31.0000 	    7.7089
    0.3433 	   10.2835 	    7.0000 	   31.0000 	    7.8059
    0.5570 	   10.3285 	    7.0000 	   31.0000 	    7.8959
    0.5570 	   10.3800 	    7.0000 	   31.0000 	    7.9989
    0.4654 	   10.4300 	    7.0000 	   31.0000 	    8.0989
    0.6485 	   10.4800 	    7.0000 	   31.0000 	    8.1989
    0.5570 	   10.5300 	    7.0000 	   31.0000 	    8.2989
    0.4501 	   10.5800 	    7.0000 	   31.0000 	    8.3989
    0.6790 	   10.6310 	    7.0000 	   31.0000 	    8.5009
    0.5417 	   10.6815 	    7.0000 	   31.0000 	    8.6019
    0.6638 	   10.7275 	    7.0000 	   31.0000 	    8.6939
    0.4044 	   10.7755 	    7.0000 	   31.0000 	    8.7899
    0.4807 	   10.8250 	    7.0000 	   31.0000 	    8.8890
    0.6485 	   10.8785 	    7.0000 	   31.0000 	    8.9960
    0.3891 	   10.9295 	    7.0000 	   31.0000 	    9.0980
    0.5112 	   10.9800 	    7.0000 	   31.0000 	    9.1990
    0.3128 	   11.0310 	    7.0000 	   31.0000 	    9.3010
    0.6790 	   11.0840 	    7.0000 	   31.0000 	    9.4070
    0.3891 	   11.1350 	    7.0000 	   31.0000 	    9.5090
    0.5112 	   11.1825 	    7.0000 	   31.0000 	    9.6040
    0.4959 	   11.2290 	    7.0000 	   31.0000 	    9.6970
    0.5112 	   11.2790 	    7.0000 	   31.0000 	    9.7970
    0.5570 	   11.3280 	    7.0000 	   31.0000 	    9.8950
    0.6332 	   11.3810 	    7.0000 	   31.0000 	   10.0010
    0.6332 	   11.4345 	    7.0000 	   31.0000 	   10.1080
    0.4654 	   11.4880 	    7.0000 	   31.0000 	   10.2150
    0.6943 	   11.5415 	    7.0000 	   31.0000 	   10.3220
    0.6180 	   11.5945 	    7.0000 	   31.0000 	   10.4280
    0.6180 	   11.6490 	    7.0000 	   31.0000 	   10.5370
    0.5417 	   11.6960 	    7.0000 	   31.0000 	   10.6311
    0.4501 	   11.7445 	    7.0000 	   31.0000 	   10.7281
    0.6790 	   11.7920 	    7.0000 	   31.0000 	   10.8231
    0.8011 	   11.8455 	    7.0000 	   31.0000 	   10.9301
    0.4654 	   11.9000 	    7.0000 	   31.0000 	   11.0391
    0.7248 	   11.9525 	    7.0000 	   31.0000 	   11.1441
    0.6332 	   12.0035 	    7.0000 	   31.0000 	   11.2461
    0.4044 	   12.0565 	    7.0000 	   31.0000 	   11.3521
    0.5875 	   12.1025 	    7.0000 	   31.0000 	   11.4441
    0.5264 	   12.1490 	    7.0000 	   31.0000 	   11.5371
    0.6485 	   12.1945 	    7.0000 	   31.0000 	   11.6281
    0.5417 	   12.2430 	    7.0000 	   31.0000 	   11.7251
    0.4959 	   12.2875 	    7.0000 	   31.0000 	   11.8141
    0.4959 	   12.3325 	    7.0000 	   31.0000 	   11.9041
    0.4501 	   12.3845 	    7.0000 	   31.0000 	   12.0081
    0.6180 	   12.4370 	    7.0000 	   31.0000 	   12.1131
    0.5570 	   12.4835 	    7.0000 	   31.0000 	   12.2061
    0.5264 	   12.5295 	    7.0000 	   31.0000 	   12.2981
    0.6790 	   12.5780 	    7.0000 	   31.0000 	   12.3952
    0.5875 	   12.6250 	    7.0000 	   31.0000 	   12.4892
    0.5875 	   12.6760 	    7.0000 	   31.0000 	   12.5912
    0.6180 	   12.7250 	    7.0000 	   31.0000 	   12.6892
    0.6332 	   12.7715 	    7.0000 	   31.0000 	   12.7822
    0.4044 	   12.8205 	    7.0000 	   31.0000 	   12.8802
    0.6943 	   12.8675 	    7.0000 	   31.0000 	   12.9742
    0.5112 	   12.9180 	    7.0000 	   31.0000 	   13.0752
    0.4044 	   12.9700 	    7.0000 	   31.0000 	   13.1792
    0.5722 	   13.0210 	    7.0000 	   31.0000 	   13.2812
    0.5722 	   13.0710 	    7.0000 	   31.0000 	   13.3812
    0.7706 	   13.1235 	    7.0000 	   31.0000 	   13.4862
    0.6180 	   13.1755 	    7.0000 	   31.0000 	   13.5902
    0.4807 	   13.2235 	    7.0000 	   31.0000 	   13.6862
    0.5722 	   13.2690 	    7.0000 	   31.0000 	   13.7772
    0.4959 	   13.3165 	    7.0000 	   31.0000 	   13.8722
    0.5417 	   13.3705 	    7.0000 	   31.0000 	   13.9802
    0.6180 	   13.4235 	    7.0000 	   31.0000 	   14.0863
    0.5722 	   13.4765 	    7.0000 	   31.0000 	   14.1923
    0.7553 	   13.5290 	    7.0000 	   31.0000 	   14.2973
    0.5264 	   13.5850 	    7.0000 	   31.0000 	   14.4093
    0.4807 	   13.6375 	    7.0000 	   31.0000 	   14.5143
    0.4959 	   13.6880 	    7.0000 	   31.0000 	   14.6153
    0.5875 	   13.7355 	    7.0000 	   31.0000 	   14.7103
    0.5875 	   13.7845 	    7.0000 	   31.0000 	   14.8083
    0.2670 	   13.8345 	    7.0000 	   31.0000 	   14.9083
    0.5417 	   13.8880 	    7.0000 	   31.0000 	   15.0153
    0.6332 	   13.9415 	    7.0000 	   31.0000 	   15.1223
    0.6790 	   13.9950 	    7.0000 	   31.0000 	   15.2293
    0.6485 	   14.0450 	    7.0000 	   31.0000 	   15.3293
    0.5264 	   14.0985 	    7.0000 	   31.0000 	   15.4363
    0.6638 	   14.1520 	    7.0000 	   31.0000 	   15.5433
    0.5417 	   14.2010 	    7.0000 	   31.0000 	   15.6413
    0.5722 	   14.2500 	    7.0000 	   31.0000 	   15.7393
    0.5264 	   14.2995 	    7.0000 	   31.0000 	   15.8384
    0.4959 	   14.3535 	    7.0000 	   31.0000 	   15.9464
    0.5570 	   14.4060 	    7.0000 	   31.0000 	   16.0514
    0.5722 	   14.4595 	    7.0000 	   31.0000 	   16.1584
    0.4196 	   14.5120 	    7.0000 	   31.0000 	   16.2634
    0.5875 	   14.5625 	    7.0000 	   31.0000 	   16.3644
    0.4501 	   14.6110 	    7.0000 	   31.0000 	   16.4614
    0.4959 	   14.6645 	    7.0000 	   31.0000 	   16.5684
    0.3433 	   14.7140 	    7.0000 	   31.0000 	   16.6674
    0.6485 	   14.7630 	    7.0000 	   31.0000 	   16.7654
    0.6638 	   14.8115 	    7.0000 	   31.0000 	   16.8624
    0.5570 	   14.8630 	    7.0000 	   31.0000 	   16.9654
    0.6485 	   14.9165 	    7.0000 	   31.0000 	   17.0724
    0.6180 	   14.9710 	    7.0000 	   31.0000 	   17.1814
    0.6485 	   15.0230 	    7.0000 	   31.0000 	   17.2854
    0.3738 	   15.0740 	    7.0000 	   31.0000 	   17.3874
    0.5570 	   15.1230 	    7.0000 	   31.0000 	   17.4854
    0.5875 	   15.1750 	    7.0000 	   31.0000 	   17.5895
    0.6943 	   15.2245 	    7.0000 	   31.0000 	   17.6885
    0.2365 	   15.2735 	    7.0000 	   31.0000 	   17.7865
    0.5264 	   15.3200 	    7.0000 	   31.0000 	   17.8795
    0.6790 	   15.3700 	    7.0000 	   31.0000 	   17.9795
    0.7706 	   15.4200 	    7.0000 	   31.0000 	   18.0795
    0.5417 	   15.4700 	    7.0000 	   31.0000 	   18.1795
    0.6790 	   15.5240 	    7.0000 	   31.0000 	   18.2875
    0.6332 	   15.5810 	    7.0000 	   31.0000 	   18.4015
    0.4959 	   15.6330 	    7.0000 	   31.0000 	   18.5055
    0.5570 	   15.6830 	    7.0000 	   31.0000 	   18.6055
    0.5112 	   15.7325 	    7.0000 	   31.0000 	   18.7045
    0.6638 	   15.7815 	    7.0000 	   31.0000 	   18.8025
    0.6027 	   15.8340 	    7.0000 	   31.0000 	   18.9075
    0.7553 	   15.8900 	    7.0000 	   31.0000 	   19.0195
    0.5570 	   15.9465 	    7.0000 	   31.0000 	   19.1325
    0.3128 	   16.0010 	    7.0000 	   31.0000 	   19.2415
    0.4349 	   16.0570 	    7.0000 	   31.0000 	   19.3536
    0.6332 	   16.1145 	    7.0000 	   31.0000 	   19.4686
    0.5722 	   16.1695 	    7.0000 	   31.0000 	   19.5786
    0.4959 	   16.2200 	    7.0000 	   31.0000 	   19.6796
    0.5875 	   16.2725 	    7.0000 	   31.0000 	   19.7846
    0.3586 	   16.3235 	    7.0000 	   31.0000 	   19.8866
    0.5264 	   16.3780 	    7.0000 	   31.0000 	   19.9956
    0.5417 	   16.4335 	    7.0000 	   31.0000 	   20.1066
    0.6180 	   16.4890 	    7.0000 	   31.0000 	   20.2176
    0.6027 	   16.5460 	    7.0000 	   31.0000 	   20.3316
    0.6332 	   16.6005 	    7.0000 	   31.0000 	   20.4406
    0.5264 	   16.6565 	    7.0000 	   31.0000 	   20.5526
    0.6485 	   16.7085 	    7.0000 	   31.0000 	   20.6566
    0.4959 	   16.7585 	    7.0000 	   31.0000 	   20.7566
    0.6180 	   16.8070 	    7.0000 	   31.0000 	   20.8536
    0.5570 	   16.8565 	    7.0000 	   31.0000 	   20.9526
    0.6027 	   16.9065 	    7.0000 	   31.0000 	   21.0516
    0.3128 	   16.9600 	    7.0000 	   31.0000 	   21.1587
    0.5417 	   17.0150 	    7.0000 	   31.0000 	   21.2687
    0.6332 	   17.0720 	    7.0000 	   31.0000 	   21.3827
    0.6180 	   17.1275 	    7.0000 	   31.0000 	   21.4937
    0.6943 	   17.1810 	    7.0000 	   31.0000 	   21.6007
    0.6332 	   17.2320 	    7.0000 	   31.0000 	   21.7027
    0.6332 	   17.2810 	    7.0000 	   31.0000 	   21.8007
    0.5570 	   17.3300 	    7.0000 	   31.0000 	   21.8987
    0.5112 	   17.3835 	    7.0000 	   31.0000 	   22.0057
    0.6943 	   17.4345 	    7.0000 	   31.0000 	   22.1077
    0.4959 	   17.4885 	    7.0000 	   31.0000 	   22.2157
    0.6027 	   17.5465 	    7.0000 	   31.0000 	   22.3317
    0.6485 	   17.5970 	    7.0000 	   31.0000 	   22.4327
    0.4959 	   17.6470 	    7.0000 	   31.0000 	   22.5327
    0.5264 	   17.6980 	    7.0000 	   31.0000 	   22.6347
    0.5875 	   17.7485 	    7.0000 	   31.0000 	   22.7357
    0.6485 	   17.7985 	    7.0000 	   31.0000 	   22.8358
    0.6332 	   17.8505 	    7.0000 	   31.0000 	   22.9398
    0.5875 	   17.9055 	    7.0000 	   31.0000 	   23.0498
    0.3433 	   17.9610 	    7.0000 	   31.0000 	   23.1608
    0.4807 	   18.0180 	    7.0000 	   31.0000 	   23.2748
    0.6332 	   18.0760 	    7.0000 	   31.0000 	   23.3908
    0.6027 	   18.1320 	    7.0000 	   31.0000 	   23.5028
    0.5112 	   18.1865 	    7.0000 	   31.0000 	   23.6118
    0.6638 	   18.2405 	    7.0000 	   31.0000 	   23.7198
    0.5722 	   18.2910 	    7.0000 	   31.0000 	   23.8208
    0.6027 	   18.3410 	    7.0000 	   31.0000 	   23.9208
    0.4501 	   18.3915 	    7.0000 	   31.0000 	   24.0218
    0.6027 	   18.4445 	    7.0000 	   31.0000 	   24.1278
    0.5875 	   18.5015 	    7.0000 	   31.0000 	   24.2418
    0.6180 	   18.5600 	    7.0000 	   31.0000 	   24.3588
    0.5570 	   18.6160 	    7.0000 	   31.0000 	   24.4708
    0.6180 	   18.6725 	    7.0000 	   31.0000 	   24.5839
    0.5417 	   18.7245 	    7.0000 	   31.0000 	   24.6879
    0.5112 	   18.7770 	    7.0000 	   31.0000 	   24.7929
    0.5722 	   18.8255 	    7.0000 	   31.0000 	   24.8899
    0.7095 	   18.8805 	    7.0000 	   31.0000 	   24.9999
    0.4196 	   18.9385 	    7.0000 	   31.0000 	   25.1159
    0.5722 	   18.9960 	    7.0000 	   31.0000 	   25.2309
    0.6180 	   19.0550 	    7.0000 	   31.0000 	   25.3489
    0.7858 	   19.1100 	    7.0000 	   31.0000 	   25.4589
    0.7706 	   19.1670 	    7.0000 	   31.0000 	   25.5719
    0.2823 	   19.2185 	    7.0000 	   31.0000 	   25.6759
    0.6790 	   19.2715 	    7.0000 	   31.0000 	   25.7819
    0.6790 	   19.3210 	    7.0000 	   31.0000 	   25.8809
    0.6790 	   19.3725 	    7.0000 	   31.0000 	   25.9839
    0.5722 	   19.4245 	    7.0000 	   31.0000 	   26.0879
    0.6485 	   19.4750 	    7.0000 	   31.0000 	   26.1889
    0.6790 	   19.5260 	    7.0000 	   31.0000 	   26.2909
    0.7095 	   19.5855 	    7.0000 	   31.0000 	   26.4100
    0.4654 	   19.6415 	    7.0000 	   31.0000 	   26.5220
    0.6638 	   19.6965 	    7.0000 	   31.0000 	   26.6320
    0.6332 	   19.7505 	    7.0000 	   31.0000 	   26.7400
    0.6485 	   19.8000 	    7.0000 	   31.0000 	   26.8390
    0.7401 	   19.8500 	    7.0000 	   31.0000 	   26.9390
    0.6180 	   19.9050 	    7.0000 	   31.0000 	   27.0490
    0.6027 	   19.9620 	    7.0000 	   31.0000 	   27.1630
    0.5264 	   20.0190 	    7.0000 	   31.0000 	   27.2770
    0.6027 	   20.0755 	    7.0000 	   31.0000 	   27.3900
    0.8011 	   20.1320 	    7.0000 	   31.0000 	   27.5030
    0.5875 	   20.1880 	    7.0000 	   31.0000 	   27.6150
    0.4501 	   20.2410 	    7.0000 	   31.0000 	   27.7210
    0.5875 	   20.2920 	    7.0000 	   31.0000 	   27.8230
    0.5264 	   20.3470 	    7.0000 	   31.0000 	   27.9330
    0.6180 	   20.4045 	    7.0000 	   31.0000 	   28.0480
    0.6180 	   20.4625 	    7.0000 	   31.0000 	   28.1641
    0.6485 	   20.5205 	    7.0000 	   31.0000 	   28.2801
    0.6943 	   20.5815 	    7.0000 	   31.0000 	   28.4021
    0.6027 	   20.6385 	    7.0000 	   31.0000 	   28.5161
    0.6943 	   20.6945 	    7.0000 	   31.0000 	   28.6281
    0.7553 	   20.7495 	    7.0000 	   31.0000 	   28.7381
    0.6027 	   20.8015 	    7.0000 	   31.0000 	   28.8421
    0.3738 	   20.8565 	    7.0000 	   31.0000 	   28.9521
    0.5875 	   20.9140 	    7.0000 	   31.0000 	   29.0671
    0.6790 	   20.9720 	    7.0000 	   31.0000 	   29.1831
    0.5570 	   21.0300 	    7.0000 	   31.0000 	   29.2991
    0.6180 	   21.0905 	    7.0000 	   31.0000 	   29.4201
    0.5722 	   21.1485 	    7.0000 	   31.0000 	   29.5361
    0.5112 	   21.2045 	    7.0000 	   31.0000 	   29.6481
    0.5722 	   21.2585 	    7.0000 	   31.0000 	   29.7561
    0.6180 	   21.3085 	    7.0000 	   31.0000 	   29.8562
    0.7095 	   21.3625 	    7.0000 	   31.0000 	   29.9642
    0.3738 	   21.4210 	    7.0000 	   31.0000 	   30.0812
    0.5722 	   21.4810 	    7.0000 	   31.0000 	   30.2012
    0.6943 	   21.5425 	    7.0000 	   31.0000 	   30.3242
    0.5570 	   21.6000 	    7.0000 	   31.0000 	   30.4392
    0.5570 	   21.6570 	    7.0000 	   31.0000 	   30.5532
    0.4501 	   21.7115 	    7.0000 	   31.0000 	   30.6622
    0.6943 	   21.7645 	    7.0000 	   31.0000 	   30.7682
    0.3738 	   21.8165 	    7.0000 	   31.0000 	   30.8722
    0.6027 	   21.8730 	    7.0000 	   31.0000 	   30.9852
    0.6332 	   21.9310 	    7.0000 	   31.0000 	   31.1012
    0.5264 	   21.9890 	    7.0000 	   31.0000 	   31.2172
    0.4807 	   22.0485 	    7.0000 	   31.0000 	   31.3362
    0.4044 	   22.1080 	    7.0000 	   31.0000 	   31.4552
    0.6027 	   22.1680 	    7.0000 	   31.0000 	   31.5753
    0.4349 	   22.2230 	    7.0000 	   31.0000 	   31.6853
    0.6180 	   22.2785 	    7.0000 	   31.0000 	   31.7963
    0.4807 	   22.3295 	    7.0000 	   31.0000 	   31.8983
    0.6180 	   22.3840 	    7.0000 	   31.0000 	   32.0073
    0.3738 	   22.4425 	    7.0000 	   31.0000 	   32.1243
    0.3891 	   22.5015 	    7.0000 	   31.0000 	   32.2423
    0.7553 	   22.5595 	    7.0000 	   31.0000 	   32.3583
    0.6027 	   22.6185 	    7.0000 	   31.0000 	   32.4763
    0.6180 	   22.6775 	    7.0000 	   31.0000 	   32.5943
    0.5570 	   22.7340 	    7.0000 	   31.0000 	   32.7073
    0.5570 	   22.7895 	    7.0000 	   31.0000 	   32.8183
    0.5570 	   22.8430 	    7.0000 	   31.0000 	   32.9253
    0.5112 	   22.9015 	    7.0000 	   31.0000 	   33.0423
    0.6180 	   22.9605 	    7.0000 	   31.0000 	   33.1603
    0.6180 	   23.0195 	    7.0000 	   31.0000 	   33.2783
    0.6180 	   23.0840 	    7.0000 	   31.0000 	   33.4074
    0.6027 	   23.1430 	    7.0000 	   31.0000 	   33.5254
    0.7553 	   23.2005 	    7.0000 	   31.0000 	   33.6404
    0.8164 	   23.2560 	    7.0000 	   31.0000 	   33.7514
    0.6943 	   23.3090 	    7.0000 	   31.0000 	   33.8574
    0.6027 	   23.3655 	    7.0000 	   31.0000 	   33.9704
    0.6790 	   23.4260 	    7.0000 	   31.0000 	   34.0914
    0.6943 	   23.4795 	    7.0000 	   31.0000 	   34.1984
    0.5570 	   23.5335 	    7.0000 	   31.0000 	   34.3064
    0.6638 	   23.5905 	    7.0000 	   31.0000 	   34.4204
    0.6943 	   23.6520 	    7.0000 	   31.0000 	   34.5434
    0.7858 	   23.7090 	    7.0000 	   31.0000 	   34.6574
    0.5722 	   23.7635 	    7.0000 	   31.0000 	   34.7664
    0.6027 	   23.8150 	    7.0000 	   31.0000 	   34.8694
    0.8011 	   23.8700 	    7.0000 	   31.0000 	   34.9794
    0.5264 	   23.9235 	    7.0000 	   31.0000 	   35.0865
    0.2976 	   23.9775 	    7.0000 	   31.0000 	   35.1945
    0.7095 	   24.0305 	    7.0000 	   31.0000 	   35.3005
    0.5875 	   24.0860 	    7.0000 	   31.0000 	   35.4115
    0.6485 	   24.1405 	    7.0000 	   31.0000 	   35.5205
    0.5570 	   24.1965 	    7.0000 	   31.0000 	   35.6325
    0.6638 	   24.2515 	    7.0000 	   31.0000 	   35.7425
    0.4654 	   24.3045 	    7.0000 	   31.0000 	   35.8485
    0.6027 	   24.3580 	    7.0000 	   31.0000 	   35.9555
    0.4044 	   24.4160 	    7.0000 	   31.0000 	   36.0715
    0.6180 	   24.4760 	    7.0000 	   31.0000 	   36.1915
    0.6332 	   24.5365 	    7.0000 	   31.0000 	   36.3125
    0.7095 	   24.5990 	    7.0000 	   31.0000 	   36.4375
    0.6638 	   24.6610 	    7.0000 	   31.0000 	   36.5615
    0.6180 	   24.7190 	    7.0000 	   31.0000 	   36.6775
    0.6027 	   24.7745 	    7.0000 	   31.0000 	   36.7885
    0.5570 	   24.8310 	    7.0000 	   31.0000 	   36.9006
    0.5875 	   24.8910 	    7.0000 	   31.0000 	   37.0216
    0.7248 	   24.9500 	    7.0000 	   31.0000 	   37.1396
    0.6180 	   25.0065 	    7.0000 	   31.0000 	   37.2526
    0.6638 	   25.0660 	    7.0000 	   31.0000 	   37.3716
    0.5570 	   25.1270 	    7.0000 	   31.0000 	   37.4936
    0.7401 	   25.1855 	    7.0000 	   31.0000 	   37.6106
    0.6790 	   25.2395 	    7.0000 	   31.0000 	   37.7186
    0.5264 	   25.2940 	    7.0000 	   31.0000 	   37.8276
    0.5875 	   25.3475 	    7.0000 	   31.0000 	   37.9346
    0.5722 	   25.4025 	    7.0000 	   31.0000 	   38.0446
    0.6943 	   25.4630 	    7.0000 	   31.0000 	   38.1656
    0.5264 	   25.5175 	    7.0000 	   31.0000 	   38.2746
    0.5722 	   25.5735 	    7.0000 	   31.0000 	   38.3866
    0.5722 	   25.6285 	    7.0000 	   31.0000 	   38.4966
    0.5875 	   25.6835 	    7.0000 	   31.0000 	   38.6057
    0.6790 	   25.7395 	    7.0000 	   31.0000 	   38.7177
    0.6943 	   25.7950 	    7.0000 	   31.0000 	   38.8287
    0.8164 	   25.8500 	    7.0000 	   31.0000 	   38.9387
    0.8316 	   25.9045 	    7.0000 	   31.0000 	   39.0477
    0.7401 	   25.9595 	    7.0000 	   31.0000 	   39.1577
    0.6180 	   26.0175 	    7.0000 	   31.0000 	   39.2737
    0.6180 	   26.0755 	    7.0000 	   31.0000 	   39.3897
    0.6943 	   26.1360 	    7.0000 	   31.0000 	   39.5107
    0.6790 	   26.1975 	    7.0000 	   31.0000 	   39.6337
    0.5417 	   26.2545 	    7.0000 	   31.0000 	   39.7477
    0.6485 	   26.3085 	    7.0000 	   31.0000 	   39.8557
    0.6485 	   26.3630 	    7.0000 	   31.0000 	   39.9647
    0.6027 	   26.4175 	    7.0000 	   31.0000 	   40.0737
    0.5417 	   26.4735 	    7.0000 	   31.0000 	   40.1857
    0.7095 	   26.5295 	    7.0000 	   31.0000 	   40.2977
    0.6790 	   26.5865 	    7.0000 	   31.0000 	   40.4118
    0.6790 	   26.6445 	    7.0000 	   31.0000 	   40.5278
    0.7401 	   26.7020 	    7.0000 	   31.0000 	   40.6428
    0.6638 	   26.7595 	    7.0000 	   31.0000 	   40.7578
    0.6485 	   26.8140 	    7.0000 	   31.0000 	   40.8668
    0.7401 	   26.8690 	    7.0000 	   31.0000 	   40.9768
    0.5264 	   26.9235 	    7.0000 	   31.0000 	   41.0858
    0.5570 	   26.9845 	    7.0000 	   31.0000 	   41.2078
    0.6180 	   27.0480 	    7.0000 	   31.0000 	   41.3348
    0.6943 	   27.1100 	    7.0000 	   31.0000 	   41.4588
    0.6485 	   27.1725 	    7.0000 	   31.0000 	   41.5838
    0.6790 	   27.2315 	    7.0000 	   31.0000 	   41.7018
    0.6638 	   27.2900 	    7.0000 	   31.0000 	   41.8188
    0.6332 	   27.3440 	    7.0000 	   31.0000 	   41.9268
    0.8011 	   27.4055 	    7.0000 	   31.0000 	   42.0499
    0.5722 	   27.4670 	    7.0000 	   31.0000 	   42.1729
    0.5570 	   27.5290 	    7.0000 	   31.0000 	   42.2969
    0.7401 	   27.5930 	    7.0000 	   31.0000 	   42.4249
    0.5722 	   27.6555 	    7.0000 	   31.0000 	   42.5499
    0.5875 	   27.7165 	    7.0000 	   31.0000 	   42.6719
    0.6180 	   27.7750 	    7.0000 	   31.0000 	   42.7889
    0.6485 	   27.8300 	    7.0000 	   31.0000 	   42.8989
    0.6485 	   27.8855 	    7.0000 	   31.0000 	   43.0099
    0.6332 	   27.9410 	    7.0000 	   31.0000 	   43.1209
    0.5264 	   28.0015 	    7.0000 	   31.0000 	   43.2419
    0.7095 	   28.0660 	    7.0000 	   31.0000 	   43.3709
    0.9079 	   28.1285 	    7.0000 	   31.0000 	   43.4959
    0.6332 	   28.1910 	    7.0000 	   31.0000 	   43.6209
    0.6027 	   28.2460 	    7.0000 	   31.0000 	   43.7309
    0.6790 	   28.3020 	    7.0000 	   31.0000 	   43.8430
    0.7553 	   28.3560 	    7.0000 	   31.0000 	   43.9510
    0.6332 	   28.4100 	    7.0000 	   31.0000 	   44.0590
    0.6027 	   28.4705 	    7.0000 	   31.0000 	   44.1800
    0.5722 	   28.5315 	    7.0000 	   31.0000 	   44.3020
    0.6485 	   28.5940 	    7.0000 	   31.0000 	   44.4270
    0.8164 	   28.6555 	    7.0000 	   31.0000 	   44.5500
    0.4349 	   28.7145 	    7.0000 	   31.0000 	   44.6680
    0.6027 	   28.7725 	    7.0000 	   31.0000 	   44.7840
    0.6790 	   28.8270 	    7.0000 	   31.0000 	   44.8930
    0.6790 	   28.8820 	    7.0000 	   31.0000 	   45.0030
    0.5722 	   28.9405 	    7.0000 	   31.0000 	   45.1200
    0.6485 	   29.0035 	    7.0000 	   31.0000 	   45.2460
    0.8011 	   29.0655 	    7.0000 	   31.0000 	   45.3700
    0.6943 	   29.1280 	    7.0000 	   31.0000 	   45.4950
    0.4654 	   29.1905 	    7.0000 	   31.0000 	   45.6201
    0.7401 	   29.2500 	    7.0000 	   31.0000 	   45.7391
    0.5112 	   29.3070 	    7.0000 	   31.0000 	   45.8531
    0.7248 	   29.3615 	    7.0000 	   31.0000 	   45.9621
    0.6027 	   29.4170 	    7.0000 	   31.0000 	   46.0731
    0.6943 	   29.4765 	    7.0000 	   31.0000 	   46.1921
    0.5417 	   29.5330 	    7.0000 	   31.0000 	   46.3051
    0.6943 	   29.5890 	    7.0000 	   31.0000 	   46.4171
    0.6027 	   29.6445 	    7.0000 	   31.0000 	   46.5281
    0.7401 	   29.7055 	    7.0000 	   31.0000 	   46.6501
    0.6485 	   29.7655 	    7.0000 	   31.0000 	   46.7701
    0.7553 	   29.8230 	    7.0000 	   31.0000 	   46.8851
    0.6332 	   29.8800 	    7.0000 	   31.0000 	   46.9991
    0.6943 	   29.9370 	    7.0000 	   31.0000 	   47.1131
    0.7401 	   29.9970 	    7.0000 	   31.0000 	   47.2331
    0.7858 	   30.0590 	    7.0000 	   31.0000 	   47.3572
    0.3738 	   30.1165 	    7.0000 	   31.0000 	   47.4722
    0.5722 	   30.1730 	    7.0000 	   31.0000 	   47.5852
    0.8774 	   30.2305 	    7.0000 	   31.0000 	   47.7002
    0.8469 	   30.2895 	    7.0000 	   31.0000 	   47.8182
    0.7401 	   30.3440 	    7.0000 	   31.0000 	   47.9272
    0.7706 	   30.4000 	    7.0000 	   31.0000 	   48.0392
    0.7401 	   30.4560 	    7.0000 	   31.0000 	   48.1512
    0.6790 	   30.5140 	    7.0000 	   31.0000 	   48.2672
    0.6790 	   30.5745 	    7.0000 	   31.0000 	   48.3882
    0.5112 	   30.6360 	    7.0000 	   31.0000 	   48.5112
    0.7401 	   30.6920 	    7.0000 	   31.0000 	   48.6232
    0.7553 	   30.7510 	    7.0000 	   31.0000 	   48.7412
    0.6790 	   30.8080 	    7.0000 	   31.0000 	   48.8552
    0.8316 	   30.8660 	    7.0000 	   31.0000 	   48.9712
    0.6790 	   30.9280 	    7.0000 	   31.0000 	   49.0953
    0.7248 	   30.9845 	    7.0000 	   31.0000 	   49.2083
    0.7248 	   31.0420 	    7.0000 	   31.0000 	   49.3233
    0.6027 	   31.1030 	    7.0000 	   31.0000 	   49.4453
    0.6485 	   31.1595 	    7.0000 	   31.0000 	   49.5583
    0.7095 	   31.2160 	    7.0000 	   31.0000 	   49.6713
    0.6485 	   31.2755 	    7.0000 	   31.0000 	   49.7903
    0.6790 	   31.3315 	    7.0000 	   31.0000 	   49.9023
    0.7248 	   31.3870 	    7.0000 	   31.0000 	   50.0133
    0.4044 	   31.4440 	    7.0000 	   31.0000 	   50.1273
    0.3738 	   31.5010 	    7.0000 	   31.0000 	   50.2413
    0.7706 	   31.5635 	    7.0000 	   31.0000 	   50.3663
    0.6485 	   31.6245 	    7.0000 	   31.0000 	   50.4883
    0.7095 	   31.6830 	    7.0000 	   31.0000 	   50.6053
    0.6485 	   31.7445 	    7.0000 	   31.0000 	   50.7283
    0.6790 	   31.8035 	    7.0000 	   31.0000 	   50.8464
    0.6790 	   31.8610 	    7.0000 	   31.0000 	   50.9614
    0.6638 	   31.9240 	    7.0000 	   31.0000 	   51.0874
    0.6790 	   31.9865 	    7.0000 	   31.0000 	   51.2124
    0.6943 	   32.0520 	    7.0000 	   31.0000 	   51.3434
    0.7248 	   32.1150 	    7.0000 	   31.0000 	   51.4694
    0.6790 	   32.1770 	    7.0000 	   31.0000 	   51.5934
    0.6485 	   32.2350 	    7.0000 	   31.0000 	   51.7094
    0.7401 	   32.2940 	    7.0000 	   31.0000 	   51.8274
    0.5722 	   32.3495 	    7.0000 	   31.0000 	   51.9384
    0.6180 	   32.4090 	    7.0000 	   31.0000 	   52.0574
    0.7095 	   32.4660 	    7.0000 	   31.0000 	   52.1714
    0.6790 	   32.5295 	    7.0000 	   31.0000 	   52.2984
    0.6485 	   32.5930 	    7.0000 	   31.0000 	   52.4254
    0.6332 	   32.6515 	    7.0000 	   31.0000 	   52.5424
    0.5875 	   32.7100 	    7.0000 	   31.0000 	   52.6595
    0.6332 	   32.7700 	    7.0000 	   31.0000 	   52.7795
    0.7858 	   32.8270 	    7.0000 	   31.0000 	   52.8935
    0.6790 	   32.8860 	    7.0000 	   31.0000 	   53.0115
    0.5417 	   32.9490 	    7.0000 	   31.0000 	   53.1375
    0.7706 	   33.0150 	    7.0000 	   31.0000 	   53.2695
    0.5875 	   33.0760 	    7.0000 	   31.0000 	   53.3915
    0.5875 	   33.1350 	    7.0000 	   31.0000 	   53.5095
    0.7553 	   33.1925 	    7.0000 	   31.0000 	   53.6245
    0.7095 	   33.2520 	    7.0000 	   31.0000 	   53.7435
    0.3738 	   33.3085 	    7.0000 	   31.0000 	   53.8565
    0.7553 	   33.3655 	    7.0000 	   31.0000 	   53.9705
    0.6332 	   33.4225 	    7.0000 	   31.0000 	   54.0845
    0.7858 	   33.4805 	    7.0000 	   31.0000 	   54.2005
    0.6180 	   33.5385 	    7.0000 	   31.0000 	   54.3166
    0.6485 	   33.5990 	    7.0000 	   31.0000 	   54.4376
    0.8469 	   33.6605 	    7.0000 	   31.0000 	   54.5606
    0.7858 	   33.7190 	    7.0000 	   31.0000 	   54.6776
    0.6180 	   33.7800 	    7.0000 	   31.0000 	   54.7996
    0.8011 	   33.8380 	    7.0000 	   31.0000 	   54.9156
    0.6790 	   33.9020 	    7.0000 	   31.0000 	   55.0436
    0.6790 	   33.9670 	    7.0000 	   31.0000 	   55.1736
    0.4654 	   34.0330 	    7.0000 	   31.0000 	   55.3056
    0.6638 	   34.0955 	    7.0000 	   31.0000 	   55.4306
    0.6943 	   34.1535 	    7.0000 	   31.0000 	   55.5466
    0.6485 	   34.2110 	    7.0000 	   31.0000 	   55.6616
    0.7401 	   34.2735 	    7.0000 	   31.0000 	   55.7866
    0.6638 	   34.3300 	    7.0000 	   31.0000 	   55.8996
    0.7248 	   34.3905 	    7.0000 	   31.0000 	   56.0196
    0.5722 	   34.4530 	    7.0000 	   31.0000 	   56.1447
    0.7095 	   34.5165 	    7.0000 	   31.0000 	   56.2717
    0.6943 	   34.5795 	    7.0000 	   31.0000 	   56.3977
    0.7095 	   34.6435 	    7.0000 	   31.0000 	   56.5257
    0.8621 	   34.7065 	    7.0000 	   31.0000 	   56.6517
    0.6638 	   34.7695 	    7.0000 	   31.0000 	   56.7777
    0.6485 	   34.8270 	    7.0000 	   31.0000 	   56.8927
    0.7401 	   34.8865 	    7.0000 	   31.0000 	   57.0117
    0.7095 	   34.9460 	    7.0000 	   31.0000 	   57.1307
    0.6790 	   35.0070 	    7.0000 	   31.0000 	   57.2527
    0.6027 	   35.0730 	    7.0000 	   31.0000 	   57.3847
    0.8011 	   35.1325 	    7.0000 	   31.0000 	   57.5037
    0.6332 	   35.1925 	    7.0000 	   31.0000 	   57.6237
    0.6790 	   35.2530 	    7.0000 	   31.0000 	   57.7447
    0.6943 	   35.3125 	    7.0000 	   31.0000 	   57.8638
    0.7401 	   35.3710 	    7.0000 	   31.0000 	   57.9808
    0.7095 	   35.4300 	    7.0000 	   31.0000 	   58.0988
    0.5722 	   35.4885 	    7.0000 	   31.0000 	   58.2158
    0.6790 	   35.5485 	    7.0000 	   31.0000 	   58.3358
    0.6332 	   35.6145 	    7.0000 	   31.0000 	   58.4678
    0.8774 	   35.6815 	    7.0000 	   31.0000 	   58.6018
    0.8927 	   35.7430 	    7.0000 	   31.0000 	   58.7248
    0.6943 	   35.8040 	    7.0000 	   31.0000 	   58.8468
    0.6790 	   35.8640 	    7.0000 	   31.0000 	   58.9668
    0.7401 	   35.9235 	    7.0000 	   31.0000 	   59.0858
    0.6943 	   35.9845 	    7.0000 	   31.0000 	   59.2078
    0.6943 	   36.0500 	    7.0000 	   31.0000 	   59.3378
    0.7095 	   36.1160 	    7.0000 	   31.0000 	   59.4708
    0.7401 	   36.1805 	    7.0000 	   31.0000 	   59.5999
    0.7401 	   36.2440 	    7.0000 	   31.0000 	   59.7269
    0.6180 	   36.3035 	    7.0000 	   31.0000 	   59.8459
    0.6638 	   36.3640 	    7.0000 	   31.0000 	   59.9669
    0.7553 	   36.4295 	    7.0000 	   32.0000 	    0.0979
    0.7095 	   36.4945 	    7.0000 	   32.0000 	    0.2279
    0.7706 	   36.5535 	    7.0000 	   32.0000 	    0.3459
    0.6180 	   36.6125 	    7.0000 	   32.0000 	    0.4639
    0.6943 	   36.6725 	    7.0000 	   32.0000 	    0.5839
    0.7553 	   36.7380 	    7.0000 	   32.0000 	    0.7149
    0.7553 	   36.8005 	    7.0000 	   32.0000 	    0.8399
    0.8011 	   36.8605 	    7.0000 	   32.0000 	    0.9599
    0.5875 	   36.9260 	    7.0000 	   32.0000 	    1.0909
    0.7706 	   36.9940 	    7.0000 	   32.0000 	    1.2269
    0.8621 	   37.0605 	    7.0000 	   32.0000 	    1.3600
    0.3891 	   37.1245 	    7.0000 	   32.0000 	    1.4880
    0.6790 	   37.1905 	    7.0000 	   32.0000 	    1.6200
    0.7553 	   37.2545 	    7.0000 	   32.0000 	    1.7480
    0.6943 	   37.3170 	    7.0000 	   32.0000 	    1.8730
    0.6790 	   37.3795 	    7.0000 	   32.0000 	    1.9980
    0.8164 	   37.4460 	    7.0000 	   32.0000 	    2.1310
    0.8774 	   37.5115 	    7.0000 	   32.0000 	    2.2620
    0.6790 	   37.5770 	    7.0000 	   32.0000 	    2.3930
    0.5570 	   37.6420 	    7.0000 	   32.0000 	    2.5230
    0.7706 	   37.7090 	    7.0000 	   32.0000 	    2.6570
    0.6943 	   37.7745 	    7.0000 	   32.0000 	    2.7880
    0.7401 	   37.8340 	    7.0000 	   32.0000 	    2.9070
    0.7553 	   37.8940 	    7.0000 	   32.0000 	    3.0270
    0.6638 	   37.9540 	    7.0000 	   32.0000 	    3.1471
    0.5417 	   38.0135 	    7.0000 	   32.0000 	    3.2661
    0.7248 	   38.0750 	    7.0000 	   32.0000 	    3.3891
    0.7248 	   38.1375 	    7.0000 	   32.0000 	    3.5141
    0.7706 	   38.2020 	    7.0000 	   32.0000 	    3.6431
    0.7095 	   38.2645 	    7.0000 	   32.0000 	    3.7681
    0.6180 	   38.3250 	    7.0000 	   32.0000 	    3.8891
    0.9079 	   38.3895 	    7.0000 	   32.0000 	    4.0181
    0.8469 	   38.4545 	    7.0000 	   32.0000 	    4.1481
    0.8011 	   38.5210 	    7.0000 	   32.0000 	    4.2811
    0.7858 	   38.5855 	    7.0000 	   32.0000 	    4.4101
    0.8011 	   38.6480 	    7.0000 	   32.0000 	    4.5351
    0.8621 	   38.7145 	    7.0000 	   32.0000 	    4.6681
    0.6180 	   38.7775 	    7.0000 	   32.0000 	    4.7942
    0.6790 	   38.8360 	    7.0000 	   32.0000 	    4.9112
    0.8469 	   38.8980 	    7.0000 	   32.0000 	    5.0352
    0.7858 	   38.9635 	    7.0000 	   32.0000 	    5.1662
    0.6485 	   39.0250 	    7.0000 	   32.0000 	    5.2892
    0.8774 	   39.0890 	    7.0000 	   32.0000 	    5.4172
    0.8469 	   39.1520 	    7.0000 	   32.0000 	    5.5432
    0.7858 	   39.2155 	    7.0000 	   32.0000 	    5.6702
    0.6790 	   39.2790 	    7.0000 	   32.0000 	    5.7972
    0.8164 	   39.3385 	    7.0000 	   32.0000 	    5.9162
    0.6943 	   39.4075 	    7.0000 	   32.0000 	    6.0542
    0.6943 	   39.4715 	    7.0000 	   32.0000 	    6.1822
    0.7706 	   39.5345 	    7.0000 	   32.0000 	    6.3082
    0.8621 	   39.5975 	    7.0000 	   32.0000 	    6.4342
    0.8469 	   39.6630 	    7.0000 	   32.0000 	    6.5653
    0.7095 	   39.7270 	    7.0000 	   32.0000 	    6.6933
    0.6943 	   39.7915 	    7.0000 	   32.0000 	    6.8223
    0.9384 	   39.8520 	    7.0000 	   32.0000 	    6.9433
    0.7858 	   39.8755 	    7.0000 	   32.0000 	    6.9903