File: instron/independence/size/bad_l15w3_40_30/bad_l15w3_40_30.txt
Thayer School of Engineering        Instron 4442 Mechanical Testing System
7/4/2018 10:21:41 PM

  Force (N)	Extension (mm)	Not Used	Not Used	Not Used	     Hour	    Minute	    Second
    0.3128 	    0.5180 	   22.0000 	   22.0000 	   43.3389
    0.0229 	    0.5915 	   22.0000 	   22.0000 	   43.4859
    0.2823 	    0.6680 	   22.0000 	   22.0000 	   43.6389
    0.3433 	    0.7475 	   22.0000 	   22.0000 	   43.7979
    0.2670 	    0.8115 	   22.0000 	   22.0000 	   43.9259
    0.3433 	    0.8940 	   22.0000 	   22.0000 	   44.0909
    0.3891 	    0.9715 	   22.0000 	   22.0000 	   44.2459
    0.2976 	    1.0495 	   22.0000 	   22.0000 	   44.4019
    0.2213 	    1.0975 	   22.0000 	   22.0000 	   44.4979
    0.3128 	    1.1880 	   22.0000 	   22.0000 	   44.6789
    0.4349 	    1.2600 	   22.0000 	   22.0000 	   44.8229
    0.2976 	    1.3250 	   22.0000 	   22.0000 	   44.9530
    0.2060 	    1.4070 	   22.0000 	   22.0000 	   45.1170
    0.1602 	    1.4875 	   22.0000 	   22.0000 	   45.2780
    0.3738 	    1.5685 	   22.0000 	   22.0000 	   45.4400
    0.3738 	    1.6240 	   22.0000 	   22.0000 	   45.5510
    0.4349 	    1.6815 	   22.0000 	   22.0000 	   45.6660
    0.3281 	    1.7270 	   22.0000 	   22.0000 	   45.7570
    0.3586 	    1.7780 	   22.0000 	   22.0000 	   45.8590
    0.4044 	    1.8255 	   22.0000 	   22.0000 	   45.9540
    0.2365 	    1.8740 	   22.0000 	   22.0000 	   46.0510
    0.4654 	    1.9210 	   22.0000 	   22.0000 	   46.1450
    0.4196 	    1.9690 	   22.0000 	   22.0000 	   46.2410
    0.4501 	    2.0185 	   22.0000 	   22.0000 	   46.3400
    0.5264 	    2.0775 	   22.0000 	   22.0000 	   46.4580
    0.2976 	    2.1275 	   22.0000 	   22.0000 	   46.5580
    0.3891 	    2.1695 	   22.0000 	   22.0000 	   46.6421
    0.3586 	    2.2105 	   22.0000 	   22.0000 	   46.7241
    0.4196 	    2.2510 	   22.0000 	   22.0000 	   46.8051
    0.3586 	    2.2920 	   22.0000 	   22.0000 	   46.8871
    0.4349 	    2.3395 	   22.0000 	   22.0000 	   46.9821
    0.2823 	    2.3875 	   22.0000 	   22.0000 	   47.0781
    0.2976 	    2.4380 	   22.0000 	   22.0000 	   47.1791
    0.2976 	    2.4860 	   22.0000 	   22.0000 	   47.2751
    0.2976 	    2.5350 	   22.0000 	   22.0000 	   47.3731
    0.4349 	    2.5845 	   22.0000 	   22.0000 	   47.4721
    0.3586 	    2.6290 	   22.0000 	   22.0000 	   47.5611
    0.5722 	    2.6775 	   22.0000 	   22.0000 	   47.6581
    0.3281 	    2.7200 	   22.0000 	   22.0000 	   47.7431
    0.3738 	    2.7665 	   22.0000 	   22.0000 	   47.8361
    0.2670 	    2.8135 	   22.0000 	   22.0000 	   47.9301
    0.4501 	    2.8605 	   22.0000 	   22.0000 	   48.0241
    0.2670 	    2.9070 	   22.0000 	   22.0000 	   48.1171
    0.3433 	    2.9525 	   22.0000 	   22.0000 	   48.2081
    0.2518 	    2.9995 	   22.0000 	   22.0000 	   48.3021
    0.5570 	    3.0475 	   22.0000 	   22.0000 	   48.3982
    0.4959 	    3.0955 	   22.0000 	   22.0000 	   48.4942
    0.2365 	    3.1440 	   22.0000 	   22.0000 	   48.5912
    0.0076 	    3.1905 	   22.0000 	   22.0000 	   48.6842
    0.3891 	    3.2375 	   22.0000 	   22.0000 	   48.7782
    0.4959 	    3.2845 	   22.0000 	   22.0000 	   48.8722
    0.3433 	    3.3300 	   22.0000 	   22.0000 	   48.9632
    0.3586 	    3.3775 	   22.0000 	   22.0000 	   49.0582
    0.3433 	    3.4265 	   22.0000 	   22.0000 	   49.1562
    0.5264 	    3.4735 	   22.0000 	   22.0000 	   49.2502
    0.4501 	    3.5205 	   22.0000 	   22.0000 	   49.3442
    0.3128 	    3.5680 	   22.0000 	   22.0000 	   49.4392
    0.2060 	    3.6155 	   22.0000 	   22.0000 	   49.5342
    0.3738 	    3.6620 	   22.0000 	   22.0000 	   49.6272
    0.0687 	    3.7110 	   22.0000 	   22.0000 	   49.7252
    0.2213 	    3.7580 	   22.0000 	   22.0000 	   49.8192
    0.3738 	    3.8055 	   22.0000 	   22.0000 	   49.9142
    0.3586 	    3.8540 	   22.0000 	   22.0000 	   50.0112
    0.4501 	    3.9030 	   22.0000 	   22.0000 	   50.1092
    0.3433 	    3.9505 	   22.0000 	   22.0000 	   50.2043
    0.3738 	    3.9960 	   22.0000 	   22.0000 	   50.2953
    0.2670 	    4.0430 	   22.0000 	   22.0000 	   50.3893
    0.5112 	    4.0885 	   22.0000 	   22.0000 	   50.4803
    0.4807 	    4.1350 	   22.0000 	   22.0000 	   50.5733
    0.3891 	    4.1810 	   22.0000 	   22.0000 	   50.6653
    0.5264 	    4.2270 	   22.0000 	   22.0000 	   50.7573
    0.3738 	    4.2750 	   22.0000 	   22.0000 	   50.8533
    0.3738 	    4.3200 	   22.0000 	   22.0000 	   50.9433
    0.4044 	    4.3665 	   22.0000 	   22.0000 	   51.0363
    0.3433 	    4.4145 	   22.0000 	   22.0000 	   51.1323
    0.3738 	    4.4625 	   22.0000 	   22.0000 	   51.2283
    0.2976 	    4.5095 	   22.0000 	   22.0000 	   51.3223
    0.2823 	    4.5590 	   22.0000 	   22.0000 	   51.4213
    0.4654 	    4.6045 	   22.0000 	   22.0000 	   51.5123
    0.5112 	    4.6540 	   22.0000 	   22.0000 	   51.6113
    0.3891 	    4.7065 	   22.0000 	   22.0000 	   51.7163
    0.4807 	    4.7540 	   22.0000 	   22.0000 	   51.8113
    0.2823 	    4.7990 	   22.0000 	   22.0000 	   51.9014
    0.1450 	    4.8475 	   22.0000 	   22.0000 	   51.9984
    0.1755 	    4.8950 	   22.0000 	   22.0000 	   52.0934
    0.3738 	    4.9425 	   22.0000 	   22.0000 	   52.1884
    0.4807 	    4.9890 	   22.0000 	   22.0000 	   52.2814
    0.4196 	    5.0355 	   22.0000 	   22.0000 	   52.3744
    0.3281 	    5.0810 	   22.0000 	   22.0000 	   52.4654
    0.3738 	    5.1285 	   22.0000 	   22.0000 	   52.5604
    0.3891 	    5.1770 	   22.0000 	   22.0000 	   52.6574
    0.5112 	    5.2235 	   22.0000 	   22.0000 	   52.7504
    0.3586 	    5.2730 	   22.0000 	   22.0000 	   52.8494
    0.2976 	    5.3210 	   22.0000 	   22.0000 	   52.9454
    0.3586 	    5.3705 	   22.0000 	   22.0000 	   53.0444
    0.2365 	    5.4185 	   22.0000 	   22.0000 	   53.1404
    0.5722 	    5.4695 	   22.0000 	   22.0000 	   53.2424
    0.2823 	    5.5165 	   22.0000 	   22.0000 	   53.3364
    0.3738 	    5.5645 	   22.0000 	   22.0000 	   53.4324
    0.4501 	    5.6125 	   22.0000 	   22.0000 	   53.5284
    0.3433 	    5.6615 	   22.0000 	   22.0000 	   53.6264
    0.4501 	    5.7085 	   22.0000 	   22.0000 	   53.7205
    0.3738 	    5.7565 	   22.0000 	   22.0000 	   53.8165
    0.3433 	    5.8045 	   22.0000 	   22.0000 	   53.9125
    0.3891 	    5.8540 	   22.0000 	   22.0000 	   54.0115
    0.4501 	    5.9010 	   22.0000 	   22.0000 	   54.1055
    0.4349 	    5.9495 	   22.0000 	   22.0000 	   54.2025
    0.4044 	    5.9970 	   22.0000 	   22.0000 	   54.2975
    0.5570 	    6.0430 	   22.0000 	   22.0000 	   54.3895
    0.4501 	    6.0915 	   22.0000 	   22.0000 	   54.4865
    0.4044 	    6.1395 	   22.0000 	   22.0000 	   54.5825
    0.4196 	    6.1880 	   22.0000 	   22.0000 	   54.6795
    0.4044 	    6.2360 	   22.0000 	   22.0000 	   54.7755
    0.2976 	    6.2835 	   22.0000 	   22.0000 	   54.8705
    0.4807 	    6.3315 	   22.0000 	   22.0000 	   54.9665
    0.5264 	    6.3805 	   22.0000 	   22.0000 	   55.0645
    0.3586 	    6.4290 	   22.0000 	   22.0000 	   55.1615
    0.4807 	    6.4800 	   22.0000 	   22.0000 	   55.2635
    0.5112 	    6.5275 	   22.0000 	   22.0000 	   55.3586
    0.3891 	    6.5750 	   22.0000 	   22.0000 	   55.4536
    0.5112 	    6.6225 	   22.0000 	   22.0000 	   55.5486
    0.5264 	    6.6775 	   22.0000 	   22.0000 	   55.6586
    0.1602 	    6.7275 	   22.0000 	   22.0000 	   55.7586
    0.5264 	    6.7755 	   22.0000 	   22.0000 	   55.8546
    0.5264 	    6.8240 	   22.0000 	   22.0000 	   55.9516
    0.2976 	    6.8740 	   22.0000 	   22.0000 	   56.0516
    0.3281 	    6.9230 	   22.0000 	   22.0000 	   56.1496
    0.6180 	    6.9715 	   22.0000 	   22.0000 	   56.2466
    0.3738 	    7.0190 	   22.0000 	   22.0000 	   56.3416
    0.5264 	    7.0700 	   22.0000 	   22.0000 	   56.4436
    0.5722 	    7.1175 	   22.0000 	   22.0000 	   56.5386
    0.4349 	    7.1660 	   22.0000 	   22.0000 	   56.6356
    0.5722 	    7.2150 	   22.0000 	   22.0000 	   56.7336
    0.5722 	    7.2650 	   22.0000 	   22.0000 	   56.8336
    0.4349 	    7.3135 	   22.0000 	   22.0000 	   56.9306
    0.4654 	    7.3635 	   22.0000 	   22.0000 	   57.0306
    0.1297 	    7.4125 	   22.0000 	   22.0000 	   57.1287
    0.4196 	    7.4620 	   22.0000 	   22.0000 	   57.2277
    0.3891 	    7.5100 	   22.0000 	   22.0000 	   57.3227
    0.4349 	    7.5575 	   22.0000 	   22.0000 	   57.4187
    0.3891 	    7.6065 	   22.0000 	   22.0000 	   57.5167
    0.4196 	    7.6580 	   22.0000 	   22.0000 	   57.6197
    0.4959 	    7.7120 	   22.0000 	   22.0000 	   57.7277
    0.4349 	    7.7600 	   22.0000 	   22.0000 	   57.8237
    0.4501 	    7.8035 	   22.0000 	   22.0000 	   57.9107
    0.5417 	    7.8540 	   22.0000 	   22.0000 	   58.0117
    0.4501 	    7.9035 	   22.0000 	   22.0000 	   58.1107
    0.4196 	    7.9555 	   22.0000 	   22.0000 	   58.2147
    0.4654 	    8.0020 	   22.0000 	   22.0000 	   58.3077
    0.4654 	    8.0510 	   22.0000 	   22.0000 	   58.4057
    0.3433 	    8.1010 	   22.0000 	   22.0000 	   58.5057
    0.4349 	    8.1510 	   22.0000 	   22.0000 	   58.6057
    0.5112 	    8.2000 	   22.0000 	   22.0000 	   58.7027
    0.6638 	    8.2505 	   22.0000 	   22.0000 	   58.8037
    0.6027 	    8.2960 	   22.0000 	   22.0000 	   58.8948
    0.4959 	    8.3395 	   22.0000 	   22.0000 	   58.9818
    0.2976 	    8.3875 	   22.0000 	   22.0000 	   59.0778
    0.4959 	    8.4375 	   22.0000 	   22.0000 	   59.1778
    0.1907 	    8.4880 	   22.0000 	   22.0000 	   59.2788
    0.4044 	    8.5390 	   22.0000 	   22.0000 	   59.3808
    0.3738 	    8.5885 	   22.0000 	   22.0000 	   59.4798
    0.4501 	    8.6405 	   22.0000 	   22.0000 	   59.5838
    0.3738 	    8.6920 	   22.0000 	   22.0000 	   59.6868
    0.5112 	    8.7420 	   22.0000 	   22.0000 	   59.7868
    0.5112 	    8.7915 	   22.0000 	   22.0000 	   59.8858
    0.5570 	    8.8425 	   22.0000 	   22.0000 	   59.9878
    0.3738 	    8.8915 	   22.0000 	   23.0000 	    0.0858
    0.5875 	    8.9415 	   22.0000 	   23.0000 	    0.1858
    0.4501 	    8.9935 	   22.0000 	   23.0000 	    0.2898
    0.5112 	    9.0445 	   22.0000 	   23.0000 	    0.3918
    0.4654 	    9.0925 	   22.0000 	   23.0000 	    0.4878
    0.4959 	    9.1420 	   22.0000 	   23.0000 	    0.5868
    0.6332 	    9.1925 	   22.0000 	   23.0000 	    0.6879
    0.4044 	    9.2415 	   22.0000 	   23.0000 	    0.7859
    0.4654 	    9.2860 	   22.0000 	   23.0000 	    0.8749
    0.6180 	    9.3295 	   22.0000 	   23.0000 	    0.9619
    0.6485 	    9.3740 	   22.0000 	   23.0000 	    1.0509
    0.3586 	    9.4210 	   22.0000 	   23.0000 	    1.1449
    0.4044 	    9.4735 	   22.0000 	   23.0000 	    1.2499
    0.6790 	    9.5225 	   22.0000 	   23.0000 	    1.3479
    0.5417 	    9.5730 	   22.0000 	   23.0000 	    1.4489
    0.5722 	    9.6230 	   22.0000 	   23.0000 	    1.5489
    0.4807 	    9.6780 	   22.0000 	   23.0000 	    1.6589
    0.4654 	    9.7310 	   22.0000 	   23.0000 	    1.7649
    0.4501 	    9.7810 	   22.0000 	   23.0000 	    1.8649
    0.5417 	    9.8310 	   22.0000 	   23.0000 	    1.9649
    0.5264 	    9.8840 	   22.0000 	   23.0000 	    2.0709
    0.5417 	    9.9360 	   22.0000 	   23.0000 	    2.1749
    0.4959 	    9.9860 	   22.0000 	   23.0000 	    2.2749
    0.4959 	   10.0345 	   22.0000 	   23.0000 	    2.3720
    0.4501 	   10.0785 	   22.0000 	   23.0000 	    2.4600
    0.6027 	   10.1235 	   22.0000 	   23.0000 	    2.5500
    0.5112 	   10.1710 	   22.0000 	   23.0000 	    2.6450
    0.5264 	   10.2200 	   22.0000 	   23.0000 	    2.7430
    0.6943 	   10.2655 	   22.0000 	   23.0000 	    2.8340
    0.5417 	   10.3120 	   22.0000 	   23.0000 	    2.9270
    0.4654 	   10.3620 	   22.0000 	   23.0000 	    3.0270
    0.5417 	   10.4130 	   22.0000 	   23.0000 	    3.1290
    0.4349 	   10.4630 	   22.0000 	   23.0000 	    3.2290
    0.5722 	   10.5145 	   22.0000 	   23.0000 	    3.3320
    0.4959 	   10.5660 	   22.0000 	   23.0000 	    3.4350
    0.6180 	   10.6180 	   22.0000 	   23.0000 	    3.5390
    0.6180 	   10.6775 	   22.0000 	   23.0000 	    3.6580
    0.5112 	   10.7265 	   22.0000 	   23.0000 	    3.7560
    0.5570 	   10.7775 	   22.0000 	   23.0000 	    3.8580
    0.5570 	   10.8275 	   22.0000 	   23.0000 	    3.9580
    0.6332 	   10.8735 	   22.0000 	   23.0000 	    4.0500
    0.4196 	   10.9190 	   22.0000 	   23.0000 	    4.1411
    0.6180 	   10.9695 	   22.0000 	   23.0000 	    4.2411
    0.5112 	   11.0195 	   22.0000 	   23.0000 	    4.3421
    0.4349 	   11.0680 	   22.0000 	   23.0000 	    4.4381
    0.4654 	   11.1130 	   22.0000 	   23.0000 	    4.5291
    0.5264 	   11.1585 	   22.0000 	   23.0000 	    4.6201
    0.4044 	   11.2035 	   22.0000 	   23.0000 	    4.7101
    0.5112 	   11.2555 	   22.0000 	   23.0000 	    4.8141
    0.3128 	   11.3005 	   22.0000 	   23.0000 	    4.9041
    0.5112 	   11.3460 	   22.0000 	   23.0000 	    4.9951
    0.6027 	   11.3910 	   22.0000 	   23.0000 	    5.0851
    0.4349 	   11.4385 	   22.0000 	   23.0000 	    5.1801
    0.5264 	   11.4835 	   22.0000 	   23.0000 	    5.2701
    0.4501 	   11.5350 	   22.0000 	   23.0000 	    5.3731
    0.4654 	   11.5865 	   22.0000 	   23.0000 	    5.4761
    0.4501 	   11.6395 	   22.0000 	   23.0000 	    5.5821
    0.6485 	   11.6950 	   22.0000 	   23.0000 	    5.6931
    0.1144 	   11.7485 	   22.0000 	   23.0000 	    5.8001
    0.6027 	   11.8010 	   22.0000 	   23.0000 	    5.9052
    0.5722 	   11.8545 	   22.0000 	   23.0000 	    6.0122
    0.5112 	   11.9065 	   22.0000 	   23.0000 	    6.1162
    0.5417 	   11.9585 	   22.0000 	   23.0000 	    6.2202
    0.6180 	   12.0100 	   22.0000 	   23.0000 	    6.3232
    0.4654 	   12.0660 	   22.0000 	   23.0000 	    6.4352
    0.5570 	   12.1175 	   22.0000 	   23.0000 	    6.5382
    0.5264 	   12.1695 	   22.0000 	   23.0000 	    6.6422
    0.5417 	   12.2225 	   22.0000 	   23.0000 	    6.7482
    0.5722 	   12.2765 	   22.0000 	   23.0000 	    6.8562
    0.4959 	   12.3275 	   22.0000 	   23.0000 	    6.9582
    0.4501 	   12.3780 	   22.0000 	   23.0000 	    7.0592
    0.6180 	   12.4305 	   22.0000 	   23.0000 	    7.1642
    0.5264 	   12.4855 	   22.0000 	   23.0000 	    7.2742
    0.5570 	   12.5395 	   22.0000 	   23.0000 	    7.3822
    0.6027 	   12.5920 	   22.0000 	   23.0000 	    7.4872
    0.4959 	   12.6445 	   22.0000 	   23.0000 	    7.5923
    0.5570 	   12.6945 	   22.0000 	   23.0000 	    7.6923
    0.5570 	   12.7475 	   22.0000 	   23.0000 	    7.7983
    0.5264 	   12.8010 	   22.0000 	   23.0000 	    7.9053
    0.4501 	   12.8530 	   22.0000 	   23.0000 	    8.0093
    0.5112 	   12.9045 	   22.0000 	   23.0000 	    8.1123
    0.5264 	   12.9570 	   22.0000 	   23.0000 	    8.2173
    0.5722 	   13.0115 	   22.0000 	   23.0000 	    8.3263
    0.5112 	   13.0635 	   22.0000 	   23.0000 	    8.4303
    0.6638 	   13.1095 	   22.0000 	   23.0000 	    8.5223
    0.4349 	   13.1595 	   22.0000 	   23.0000 	    8.6223
    0.5722 	   13.2125 	   22.0000 	   23.0000 	    8.7283
    0.5417 	   13.2640 	   22.0000 	   23.0000 	    8.8313
    0.6027 	   13.3190 	   22.0000 	   23.0000 	    8.9413
    0.5417 	   13.3715 	   22.0000 	   23.0000 	    9.0463
    0.6485 	   13.4250 	   22.0000 	   23.0000 	    9.1533
    0.6027 	   13.4785 	   22.0000 	   23.0000 	    9.2603
    0.7401 	   13.5295 	   22.0000 	   23.0000 	    9.3624
    0.3891 	   13.5835 	   22.0000 	   23.0000 	    9.4704
    0.6027 	   13.6365 	   22.0000 	   23.0000 	    9.5764
    0.5722 	   13.6935 	   22.0000 	   23.0000 	    9.6904
    0.5875 	   13.7465 	   22.0000 	   23.0000 	    9.7964
    0.4807 	   13.7990 	   22.0000 	   23.0000 	    9.9014
    0.7095 	   13.8505 	   22.0000 	   23.0000 	   10.0044
    0.4501 	   13.9025 	   22.0000 	   23.0000 	   10.1084
    0.6027 	   13.9515 	   22.0000 	   23.0000 	   10.2064
    0.6943 	   14.0030 	   22.0000 	   23.0000 	   10.3094
    0.7095 	   14.0565 	   22.0000 	   23.0000 	   10.4164
    0.6638 	   14.1085 	   22.0000 	   23.0000 	   10.5204
    0.6485 	   14.1570 	   22.0000 	   23.0000 	   10.6174
    0.6485 	   14.2095 	   22.0000 	   23.0000 	   10.7224
    0.5570 	   14.2645 	   22.0000 	   23.0000 	   10.8324
    0.3281 	   14.3165 	   22.0000 	   23.0000 	   10.9364
    0.4807 	   14.3695 	   22.0000 	   23.0000 	   11.0424
    0.6332 	   14.4190 	   22.0000 	   23.0000 	   11.1415
    0.5112 	   14.4675 	   22.0000 	   23.0000 	   11.2385
    0.6332 	   14.5200 	   22.0000 	   23.0000 	   11.3435
    0.6332 	   14.5695 	   22.0000 	   23.0000 	   11.4425
    0.5264 	   14.6220 	   22.0000 	   23.0000 	   11.5475
    0.5722 	   14.6775 	   22.0000 	   23.0000 	   11.6585
    0.7706 	   14.7310 	   22.0000 	   23.0000 	   11.7655
    0.6332 	   14.7840 	   22.0000 	   23.0000 	   11.8715
    0.8011 	   14.8385 	   22.0000 	   23.0000 	   11.9805
    0.5417 	   14.8915 	   22.0000 	   23.0000 	   12.0865
    0.5875 	   14.9450 	   22.0000 	   23.0000 	   12.1935
    0.6790 	   14.9980 	   22.0000 	   23.0000 	   12.2995
    0.6485 	   15.0540 	   22.0000 	   23.0000 	   12.4115
    0.6180 	   15.1080 	   22.0000 	   23.0000 	   12.5195
    0.5875 	   15.1620 	   22.0000 	   23.0000 	   12.6275
    0.6943 	   15.2145 	   22.0000 	   23.0000 	   12.7325
    0.3281 	   15.2640 	   22.0000 	   23.0000 	   12.8316
    0.6790 	   15.3115 	   22.0000 	   23.0000 	   12.9266
    0.6180 	   15.3615 	   22.0000 	   23.0000 	   13.0266
    0.5875 	   15.4110 	   22.0000 	   23.0000 	   13.1256
    0.4349 	   15.4640 	   22.0000 	   23.0000 	   13.2316
    0.9232 	   15.5130 	   22.0000 	   23.0000 	   13.3296
    0.6943 	   15.5775 	   22.0000 	   23.0000 	   13.4586
    0.5417 	   15.6255 	   22.0000 	   23.0000 	   13.5546
    0.6485 	   15.6775 	   22.0000 	   23.0000 	   13.6586
    0.6180 	   15.7290 	   22.0000 	   23.0000 	   13.7616
    0.6332 	   15.7775 	   22.0000 	   23.0000 	   13.8586
    0.6638 	   15.8255 	   22.0000 	   23.0000 	   13.9546
    0.6180 	   15.8725 	   22.0000 	   23.0000 	   14.0486
    0.6638 	   15.9260 	   22.0000 	   23.0000 	   14.1556
    0.6790 	   15.9745 	   22.0000 	   23.0000 	   14.2526
    0.5875 	   16.0220 	   22.0000 	   23.0000 	   14.3476
    0.7553 	   16.0725 	   22.0000 	   23.0000 	   14.4486
    0.6943 	   16.1205 	   22.0000 	   23.0000 	   14.5446
    0.6943 	   16.1690 	   22.0000 	   23.0000 	   14.6417
    0.6180 	   16.2170 	   22.0000 	   23.0000 	   14.7377
    0.6790 	   16.2650 	   22.0000 	   23.0000 	   14.8337
    0.6638 	   16.3125 	   22.0000 	   23.0000 	   14.9287
    0.7095 	   16.3640 	   22.0000 	   23.0000 	   15.0317
    0.7095 	   16.4165 	   22.0000 	   23.0000 	   15.1367
    0.6027 	   16.4690 	   22.0000 	   23.0000 	   15.2417
    0.7401 	   16.5225 	   22.0000 	   23.0000 	   15.3487
    0.4501 	   16.5780 	   22.0000 	   23.0000 	   15.4597
    0.6027 	   16.6310 	   22.0000 	   23.0000 	   15.5657
    0.6027 	   16.6860 	   22.0000 	   23.0000 	   15.6757
    0.4044 	   16.7370 	   22.0000 	   23.0000 	   15.7777
    0.6943 	   16.7870 	   22.0000 	   23.0000 	   15.8777
    0.6027 	   16.8365 	   22.0000 	   23.0000 	   15.9767
    0.6027 	   16.8900 	   22.0000 	   23.0000 	   16.0837
    0.7706 	   16.9455 	   22.0000 	   23.0000 	   16.1937
    0.6790 	   16.9995 	   22.0000 	   23.0000 	   16.3017
    0.6027 	   17.0545 	   22.0000 	   23.0000 	   16.4118
    0.7401 	   17.1105 	   22.0000 	   23.0000 	   16.5238
    0.8164 	   17.1650 	   22.0000 	   23.0000 	   16.6328
    0.6790 	   17.2200 	   22.0000 	   23.0000 	   16.7428
    0.6180 	   17.2740 	   22.0000 	   23.0000 	   16.8508
    0.6332 	   17.3270 	   22.0000 	   23.0000 	   16.9568
    0.6638 	   17.3795 	   22.0000 	   23.0000 	   17.0618
    0.6485 	   17.4340 	   22.0000 	   23.0000 	   17.1708
    0.6485 	   17.4830 	   22.0000 	   23.0000 	   17.2688
    0.6485 	   17.5315 	   22.0000 	   23.0000 	   17.3658
    0.6180 	   17.5820 	   22.0000 	   23.0000 	   17.4668
    0.7553 	   17.6295 	   22.0000 	   23.0000 	   17.5618
    0.8011 	   17.6830 	   22.0000 	   23.0000 	   17.6688
    0.7401 	   17.7365 	   22.0000 	   23.0000 	   17.7758
    0.3891 	   17.7915 	   22.0000 	   23.0000 	   17.8858
    0.8469 	   17.8455 	   22.0000 	   23.0000 	   17.9938
    0.7553 	   17.8940 	   22.0000 	   23.0000 	   18.0909
    0.7401 	   17.9480 	   22.0000 	   23.0000 	   18.1989
    0.5112 	   18.0020 	   22.0000 	   23.0000 	   18.3069
    0.7401 	   18.0610 	   22.0000 	   23.0000 	   18.4249
    0.5570 	   18.1150 	   22.0000 	   23.0000 	   18.5329
    0.6943 	   18.1705 	   22.0000 	   23.0000 	   18.6439
    0.7401 	   18.2235 	   22.0000 	   23.0000 	   18.7499
    0.8011 	   18.2795 	   22.0000 	   23.0000 	   18.8619
    0.6943 	   18.3345 	   22.0000 	   23.0000 	   18.9719
    0.8164 	   18.3900 	   22.0000 	   23.0000 	   19.0829
    0.7401 	   18.4455 	   22.0000 	   23.0000 	   19.1939
    0.8621 	   18.4990 	   22.0000 	   23.0000 	   19.3009
    0.8774 	   18.5565 	   22.0000 	   23.0000 	   19.4159
    0.8011 	   18.6120 	   22.0000 	   23.0000 	   19.5269
    0.6790 	   18.6675 	   22.0000 	   23.0000 	   19.6379
    0.7401 	   18.7230 	   22.0000 	   23.0000 	   19.7489
    0.6943 	   18.7795 	   22.0000 	   23.0000 	   19.8620
    0.8621 	   18.8345 	   22.0000 	   23.0000 	   19.9720
    0.8164 	   18.8905 	   22.0000 	   23.0000 	   20.0840
    0.6943 	   18.9450 	   22.0000 	   23.0000 	   20.1930
    0.4501 	   18.9995 	   22.0000 	   23.0000 	   20.3020
    0.6332 	   19.0580 	   22.0000 	   23.0000 	   20.4190
    0.9842 	   19.1140 	   22.0000 	   23.0000 	   20.5310
    0.6790 	   19.1700 	   22.0000 	   23.0000 	   20.6430
    0.6790 	   19.2260 	   22.0000 	   23.0000 	   20.7550
    0.7401 	   19.2785 	   22.0000 	   23.0000 	   20.8600
    0.6180 	   19.3280 	   22.0000 	   23.0000 	   20.9590
    0.7401 	   19.3780 	   22.0000 	   23.0000 	   21.0590
    0.8011 	   19.4280 	   22.0000 	   23.0000 	   21.1590
    0.8011 	   19.4775 	   22.0000 	   23.0000 	   21.2580
    0.7553 	   19.5335 	   22.0000 	   23.0000 	   21.3700
    0.8011 	   19.5910 	   22.0000 	   23.0000 	   21.4850
    0.7858 	   19.6480 	   22.0000 	   23.0000 	   21.5991
    0.7553 	   19.7035 	   22.0000 	   23.0000 	   21.7101
    0.8621 	   19.7585 	   22.0000 	   23.0000 	   21.8201
    0.6943 	   19.8090 	   22.0000 	   23.0000 	   21.9211
    0.6943 	   19.8595 	   22.0000 	   23.0000 	   22.0221
    0.8621 	   19.9105 	   22.0000 	   23.0000 	   22.1241
    0.7858 	   19.9665 	   22.0000 	   23.0000 	   22.2361
    0.9079 	   20.0225 	   22.0000 	   23.0000 	   22.3481
    0.7095 	   20.0750 	   22.0000 	   23.0000 	   22.4531
    0.7706 	   20.1260 	   22.0000 	   23.0000 	   22.5551
    0.8011 	   20.1785 	   22.0000 	   23.0000 	   22.6601
    0.7706 	   20.2285 	   22.0000 	   23.0000 	   22.7601
    0.6638 	   20.2790 	   22.0000 	   23.0000 	   22.8611
    0.8621 	   20.3295 	   22.0000 	   23.0000 	   22.9621
    0.8316 	   20.3800 	   22.0000 	   23.0000 	   23.0631
    0.8164 	   20.4310 	   22.0000 	   23.0000 	   23.1651
    0.6638 	   20.4820 	   22.0000 	   23.0000 	   23.2671
    0.6638 	   20.5325 	   22.0000 	   23.0000 	   23.3682
    0.9842 	   20.5845 	   22.0000 	   23.0000 	   23.4722
    0.8621 	   20.6350 	   22.0000 	   23.0000 	   23.5732
    0.9079 	   20.6860 	   22.0000 	   23.0000 	   23.6752
    0.8011 	   20.7370 	   22.0000 	   23.0000 	   23.7772
    0.6027 	   20.7885 	   22.0000 	   23.0000 	   23.8802
    0.8011 	   20.8440 	   22.0000 	   23.0000 	   23.9912
    0.8011 	   20.9005 	   22.0000 	   23.0000 	   24.1042
    0.8927 	   20.9570 	   22.0000 	   23.0000 	   24.2172
    0.7553 	   21.0085 	   22.0000 	   23.0000 	   24.3202
    0.7706 	   21.0615 	   22.0000 	   23.0000 	   24.4262
    0.8316 	   21.1115 	   22.0000 	   23.0000 	   24.5262
    0.7095 	   21.1660 	   22.0000 	   23.0000 	   24.6352
    0.8011 	   21.2230 	   22.0000 	   23.0000 	   24.7492
    1.0147 	   21.2805 	   22.0000 	   23.0000 	   24.8642
    0.8469 	   21.3360 	   22.0000 	   23.0000 	   24.9752
    0.9232 	   21.3920 	   22.0000 	   23.0000 	   25.0873
    0.9232 	   21.4470 	   22.0000 	   23.0000 	   25.1973
    0.9689 	   21.5045 	   22.0000 	   23.0000 	   25.3113
    0.8621 	   21.5620 	   22.0000 	   23.0000 	   25.4273
    0.7553 	   21.6185 	   22.0000 	   23.0000 	   25.5403
    0.9384 	   21.6775 	   22.0000 	   23.0000 	   25.6583
    0.7401 	   21.7360 	   22.0000 	   23.0000 	   25.7753
    0.7858 	   21.7925 	   22.0000 	   23.0000 	   25.8883
    0.9384 	   21.8485 	   22.0000 	   23.0000 	   26.0003
    0.9689 	   21.9060 	   22.0000 	   23.0000 	   26.1153
    0.8011 	   21.9625 	   22.0000 	   23.0000 	   26.2283
    0.6790 	   22.0180 	   22.0000 	   23.0000 	   26.3393
    0.9079 	   22.0715 	   22.0000 	   23.0000 	   26.4463
    0.7248 	   22.1230 	   22.0000 	   23.0000 	   26.5493
    0.9995 	   22.1740 	   22.0000 	   23.0000 	   26.6513
    0.7706 	   22.2250 	   22.0000 	   23.0000 	   26.7533
    0.9079 	   22.2755 	   22.0000 	   23.0000 	   26.8544
    0.9842 	   22.3265 	   22.0000 	   23.0000 	   26.9564
    0.7858 	   22.3775 	   22.0000 	   23.0000 	   27.0584
    0.7858 	   22.4340 	   22.0000 	   23.0000 	   27.1714
    0.9384 	   22.4920 	   22.0000 	   23.0000 	   27.2874
    0.8621 	   22.5450 	   22.0000 	   23.0000 	   27.3934
    0.8621 	   22.5965 	   22.0000 	   23.0000 	   27.4964
    0.9384 	   22.6475 	   22.0000 	   23.0000 	   27.5984
    0.8621 	   22.6985 	   22.0000 	   23.0000 	   27.7004
    0.8469 	   22.7510 	   22.0000 	   23.0000 	   27.8054
    0.9995 	   22.8025 	   22.0000 	   23.0000 	   27.9084
    0.7248 	   22.8535 	   22.0000 	   23.0000 	   28.0104
    0.9842 	   22.9050 	   22.0000 	   23.0000 	   28.1134
    0.8774 	   22.9565 	   22.0000 	   23.0000 	   28.2164
    0.8316 	   23.0140 	   22.0000 	   23.0000 	   28.3314
    0.7858 	   23.0725 	   22.0000 	   23.0000 	   28.4484
    0.9537 	   23.1300 	   22.0000 	   23.0000 	   28.5634
    0.8927 	   23.1845 	   22.0000 	   23.0000 	   28.6725
    0.5264 	   23.2380 	   22.0000 	   23.0000 	   28.7795
    0.6943 	   23.2920 	   22.0000 	   23.0000 	   28.8875
    0.8316 	   23.3435 	   22.0000 	   23.0000 	   28.9905
    0.8469 	   23.3950 	   22.0000 	   23.0000 	   29.0935
    0.9079 	   23.4470 	   22.0000 	   23.0000 	   29.1975
    1.2436 	   23.4990 	   22.0000 	   23.0000 	   29.3015
    0.8621 	   23.5530 	   22.0000 	   23.0000 	   29.4095
    0.9384 	   23.6035 	   22.0000 	   23.0000 	   29.5105
    0.7706 	   23.6540 	   22.0000 	   23.0000 	   29.6115
    0.8621 	   23.7110 	   22.0000 	   23.0000 	   29.7255
    1.0147 	   23.7675 	   22.0000 	   23.0000 	   29.8385
    0.9232 	   23.8230 	   22.0000 	   23.0000 	   29.9495
    1.0605 	   23.8760 	   22.0000 	   23.0000 	   30.0555
    0.8774 	   23.9340 	   22.0000 	   23.0000 	   30.1715
    1.1063 	   23.9895 	   22.0000 	   23.0000 	   30.2825
    0.8774 	   24.0415 	   22.0000 	   23.0000 	   30.3866
    1.0147 	   24.0935 	   22.0000 	   23.0000 	   30.4906
    0.9384 	   24.1455 	   22.0000 	   23.0000 	   30.5946
    0.9079 	   24.1970 	   22.0000 	   23.0000 	   30.6976
    1.0452 	   24.2480 	   22.0000 	   23.0000 	   30.7996
    1.0605 	   24.2990 	   22.0000 	   23.0000 	   30.9016
    0.8927 	   24.3505 	   22.0000 	   23.0000 	   31.0046
    1.1521 	   24.4085 	   22.0000 	   23.0000 	   31.1206
    0.9232 	   24.4630 	   22.0000 	   23.0000 	   31.2296
    0.9995 	   24.5195 	   22.0000 	   23.0000 	   31.3426
    0.8927 	   24.5740 	   22.0000 	   23.0000 	   31.4516
    0.9995 	   24.6255 	   22.0000 	   23.0000 	   31.5546
    0.9995 	   24.6785 	   22.0000 	   23.0000 	   31.6606
    0.8316 	   24.7300 	   22.0000 	   23.0000 	   31.7636
    1.0147 	   24.7815 	   22.0000 	   23.0000 	   31.8666
    0.8927 	   24.8335 	   22.0000 	   23.0000 	   31.9706
    1.0758 	   24.8900 	   22.0000 	   23.0000 	   32.0837
    0.9079 	   24.9465 	   22.0000 	   23.0000 	   32.1967
    0.9842 	   25.0055 	   22.0000 	   23.0000 	   32.3147
    0.9842 	   25.0625 	   22.0000 	   23.0000 	   32.4287
    0.9689 	   25.1175 	   22.0000 	   23.0000 	   32.5387
    1.0300 	   25.1750 	   22.0000 	   23.0000 	   32.6537
    1.1063 	   25.2335 	   22.0000 	   23.0000 	   32.7707
    1.1063 	   25.2900 	   22.0000 	   23.0000 	   32.8837
    0.9995 	   25.3495 	   22.0000 	   23.0000 	   33.0027
    1.0147 	   25.4065 	   22.0000 	   23.0000 	   33.1167
    1.0300 	   25.4650 	   22.0000 	   23.0000 	   33.2337
    1.1215 	   25.5230 	   22.0000 	   23.0000 	   33.3497
    1.0758 	   25.5820 	   22.0000 	   23.0000 	   33.4677
    0.9842 	   25.6415 	   22.0000 	   23.0000 	   33.5857
    1.0300 	   25.6985 	   22.0000 	   23.0000 	   33.6997
    1.0758 	   25.7565 	   22.0000 	   23.0000 	   33.8158
    0.9384 	   25.8140 	   22.0000 	   23.0000 	   33.9308
    1.1063 	   25.8715 	   22.0000 	   23.0000 	   34.0458
    1.0300 	   25.9305 	   22.0000 	   23.0000 	   34.1638
    1.0605 	   25.9885 	   22.0000 	   23.0000 	   34.2798
    1.0758 	   26.0490 	   22.0000 	   23.0000 	   34.4008
    0.9995 	   26.1050 	   22.0000 	   23.0000 	   34.5128
    1.0910 	   26.1615 	   22.0000 	   23.0000 	   34.6258
    0.6638 	   26.2200 	   22.0000 	   23.0000 	   34.7428
    1.0910 	   26.2770 	   22.0000 	   23.0000 	   34.8568
    0.9995 	   26.3350 	   22.0000 	   23.0000 	   34.9728
    1.2284 	   26.3940 	   22.0000 	   23.0000 	   35.0908
    0.8621 	   26.4540 	   22.0000 	   23.0000 	   35.2108
    1.1368 	   26.5115 	   22.0000 	   23.0000 	   35.3258
    1.1368 	   26.5710 	   22.0000 	   23.0000 	   35.4448
    1.0758 	   26.6310 	   22.0000 	   23.0000 	   35.5648
    0.9232 	   26.6950 	   22.0000 	   23.0000 	   35.6929
    0.9537 	   26.7550 	   22.0000 	   23.0000 	   35.8129
    1.1063 	   26.8105 	   22.0000 	   23.0000 	   35.9239
    1.0910 	   26.8685 	   22.0000 	   23.0000 	   36.0399
    1.0758 	   26.9260 	   22.0000 	   23.0000 	   36.1549
    1.0452 	   26.9835 	   22.0000 	   23.0000 	   36.2699
    1.0605 	   27.0415 	   22.0000 	   23.0000 	   36.3859
    1.1826 	   27.0975 	   22.0000 	   23.0000 	   36.4979
    0.9842 	   27.1545 	   22.0000 	   23.0000 	   36.6119
    1.0452 	   27.2130 	   22.0000 	   23.0000 	   36.7289
    1.0758 	   27.2725 	   22.0000 	   23.0000 	   36.8479
    1.0300 	   27.3305 	   22.0000 	   23.0000 	   36.9639
    1.2131 	   27.3870 	   22.0000 	   23.0000 	   37.0769
    1.1063 	   27.4455 	   22.0000 	   23.0000 	   37.1939
    1.2589 	   27.5030 	   22.0000 	   23.0000 	   37.3089
    1.0452 	   27.5625 	   22.0000 	   23.0000 	   37.4280
    1.0147 	   27.6235 	   22.0000 	   23.0000 	   37.5500
    1.2131 	   27.6815 	   22.0000 	   23.0000 	   37.6660
    1.0910 	   27.7380 	   22.0000 	   23.0000 	   37.7790
    1.1978 	   27.7945 	   22.0000 	   23.0000 	   37.8920
    1.1063 	   27.8520 	   22.0000 	   23.0000 	   38.0070
    1.1521 	   27.9085 	   22.0000 	   23.0000 	   38.1200
    1.1521 	   27.9635 	   22.0000 	   23.0000 	   38.2300
    1.0452 	   28.0170 	   22.0000 	   23.0000 	   38.3370
    1.2589 	   28.0705 	   22.0000 	   23.0000 	   38.4440
    1.0605 	   28.1275 	   22.0000 	   23.0000 	   38.5580
    1.2589 	   28.1865 	   22.0000 	   23.0000 	   38.6760
    1.2131 	   28.2460 	   22.0000 	   23.0000 	   38.7950
    1.2436 	   28.3045 	   22.0000 	   23.0000 	   38.9120
    1.1978 	   28.3590 	   22.0000 	   23.0000 	   39.0210
    1.1673 	   28.4175 	   22.0000 	   23.0000 	   39.1381
    1.1826 	   28.4760 	   22.0000 	   23.0000 	   39.2551
    1.2589 	   28.5355 	   22.0000 	   23.0000 	   39.3741
    1.1521 	   28.5935 	   22.0000 	   23.0000 	   39.4901
    1.1673 	   28.6490 	   22.0000 	   23.0000 	   39.6011
    1.2894 	   28.7050 	   22.0000 	   23.0000 	   39.7131
    1.3504 	   28.7625 	   22.0000 	   23.0000 	   39.8281
    1.2894 	   28.8210 	   22.0000 	   23.0000 	   39.9451
    1.2894 	   28.8800 	   22.0000 	   23.0000 	   40.0631
    1.2284 	   28.9405 	   22.0000 	   23.0000 	   40.1841
    1.2894 	   28.9980 	   22.0000 	   23.0000 	   40.2991
    1.3352 	   29.0585 	   22.0000 	   23.0000 	   40.4201
    1.2436 	   29.1165 	   22.0000 	   23.0000 	   40.5361
    1.2589 	   29.1740 	   22.0000 	   23.0000 	   40.6511
    1.2131 	   29.2695 	   22.0000 	   23.0000 	   40.8422
    1.1826 	   29.3255 	   22.0000 	   23.0000 	   40.9542
    1.3504 	   29.3845 	   22.0000 	   23.0000 	   41.0722
    1.3046 	   29.4435 	   22.0000 	   23.0000 	   41.1902
    1.1368 	   29.5030 	   22.0000 	   23.0000 	   41.3092
    1.3809 	   29.5565 	   22.0000 	   23.0000 	   41.4162
    1.1673 	   29.6135 	   22.0000 	   23.0000 	   41.5302
    1.2589 	   29.6775 	   22.0000 	   23.0000 	   41.6582
    1.2741 	   29.7365 	   22.0000 	   23.0000 	   41.7762
    1.2284 	   29.7960 	   22.0000 	   23.0000 	   41.8952
    1.4725 	   29.8560 	   22.0000 	   23.0000 	   42.0152
    1.1673 	   29.9145 	   22.0000 	   23.0000 	   42.1322
    1.4115 	   29.9720 	   22.0000 	   23.0000 	   42.2472
    1.3962 	   30.0295 	   22.0000 	   23.0000 	   42.3622
    1.4115 	   30.0915 	   22.0000 	   23.0000 	   42.4862
    1.1673 	   30.1515 	   22.0000 	   23.0000 	   42.6063
    1.3199 	   30.2115 	   22.0000 	   23.0000 	   42.7263
    1.3199 	   30.2720 	   22.0000 	   23.0000 	   42.8473
    1.3199 	   30.3310 	   22.0000 	   23.0000 	   42.9653
    1.2741 	   30.3905 	   22.0000 	   23.0000 	   43.0843
    1.3199 	   30.4485 	   22.0000 	   23.0000 	   43.2003
    1.0452 	   30.5070 	   22.0000 	   23.0000 	   43.3173
    1.1673 	   30.5670 	   22.0000 	   23.0000 	   43.4373
    1.2741 	   30.6250 	   22.0000 	   23.0000 	   43.5533
    1.3046 	   30.6850 	   22.0000 	   23.0000 	   43.6733
    1.2436 	   30.7440 	   22.0000 	   23.0000 	   43.7913
    1.2894 	   30.8010 	   22.0000 	   23.0000 	   43.9053
    1.2589 	   30.8615 	   22.0000 	   23.0000 	   44.0263
    1.3962 	   30.9205 	   22.0000 	   23.0000 	   44.1443
    1.1978 	   30.9795 	   22.0000 	   23.0000 	   44.2623
    1.2131 	   31.0395 	   22.0000 	   23.0000 	   44.3824
    1.2436 	   31.0985 	   22.0000 	   23.0000 	   44.5004
    1.2284 	   31.1565 	   22.0000 	   23.0000 	   44.6164
    1.5640 	   31.2160 	   22.0000 	   23.0000 	   44.7354
    1.2589 	   31.2760 	   22.0000 	   23.0000 	   44.8554
    1.1673 	   31.3345 	   22.0000 	   23.0000 	   44.9724
    1.3657 	   31.3950 	   22.0000 	   23.0000 	   45.0934
    1.3809 	   31.4535 	   22.0000 	   23.0000 	   45.2104
    1.4420 	   31.5145 	   22.0000 	   23.0000 	   45.3324
    1.3809 	   31.5770 	   22.0000 	   23.0000 	   45.4574
    1.3352 	   31.6350 	   22.0000 	   23.0000 	   45.5734
    1.3962 	   31.6995 	   22.0000 	   23.0000 	   45.7024
    1.2894 	   31.7585 	   22.0000 	   23.0000 	   45.8204
    1.4572 	   31.8175 	   22.0000 	   23.0000 	   45.9384
    1.4267 	   31.8755 	   22.0000 	   23.0000 	   46.0545
    1.3046 	   31.9355 	   22.0000 	   23.0000 	   46.1745
    1.4115 	   31.9930 	   22.0000 	   23.0000 	   46.2895
    1.4878 	   32.0525 	   22.0000 	   23.0000 	   46.4085
    1.3046 	   32.1105 	   22.0000 	   23.0000 	   46.5245
    1.3809 	   32.1710 	   22.0000 	   23.0000 	   46.6455
    1.3809 	   32.2310 	   22.0000 	   23.0000 	   46.7655
    1.4572 	   32.2900 	   22.0000 	   23.0000 	   46.8835
    1.4878 	   32.3490 	   22.0000 	   23.0000 	   47.0015
    1.3504 	   32.4070 	   22.0000 	   23.0000 	   47.1175
    1.4267 	   32.4620 	   22.0000 	   23.0000 	   47.2275
    1.5030 	   32.5155 	   22.0000 	   23.0000 	   47.3345
    1.3352 	   32.5705 	   22.0000 	   23.0000 	   47.4445
    1.4115 	   32.6250 	   22.0000 	   23.0000 	   47.5535
    1.5335 	   32.6800 	   22.0000 	   23.0000 	   47.6635
    1.1673 	   32.7405 	   22.0000 	   23.0000 	   47.7845
    1.4115 	   32.8010 	   22.0000 	   23.0000 	   47.9056
    1.5640 	   32.8605 	   22.0000 	   23.0000 	   48.0246
    1.4420 	   32.9205 	   22.0000 	   23.0000 	   48.1446
    1.5488 	   32.9795 	   22.0000 	   23.0000 	   48.2626
    1.5183 	   33.0405 	   22.0000 	   23.0000 	   48.3846
    1.3809 	   33.1005 	   22.0000 	   23.0000 	   48.5046
    1.3199 	   33.1540 	   22.0000 	   23.0000 	   48.6116
    1.4267 	   33.2080 	   22.0000 	   23.0000 	   48.7196
    1.0605 	   33.2630 	   22.0000 	   23.0000 	   48.8296
    1.4725 	   33.3180 	   22.0000 	   23.0000 	   48.9396
    1.3962 	   33.3720 	   22.0000 	   23.0000 	   49.0476
    1.5946 	   33.4260 	   22.0000 	   23.0000 	   49.1556
    1.4878 	   33.4820 	   22.0000 	   23.0000 	   49.2676
    1.4267 	   33.5410 	   22.0000 	   23.0000 	   49.3856
    1.4878 	   33.5985 	   22.0000 	   23.0000 	   49.5006
    1.5640 	   33.6570 	   22.0000 	   23.0000 	   49.6177
    1.2436 	   33.7150 	   22.0000 	   23.0000 	   49.7337
    1.5793 	   33.7760 	   22.0000 	   23.0000 	   49.8557
    1.5030 	   33.8310 	   22.0000 	   23.0000 	   49.9657
    1.7014 	   33.8850 	   22.0000 	   23.0000 	   50.0737
    1.5946 	   33.9410 	   22.0000 	   23.0000 	   50.1857
    1.4420 	   34.0005 	   22.0000 	   23.0000 	   50.3047
    1.5793 	   34.0610 	   22.0000 	   23.0000 	   50.4257
    1.3657 	   34.1220 	   22.0000 	   23.0000 	   50.5477
    1.5640 	   34.1820 	   22.0000 	   23.0000 	   50.6677
    1.5335 	   34.2435 	   22.0000 	   23.0000 	   50.7907
    1.6556 	   34.3030 	   22.0000 	   23.0000 	   50.9097
    1.6251 	   34.3620 	   22.0000 	   23.0000 	   51.0277
    1.5640 	   34.4230 	   22.0000 	   23.0000 	   51.1487
    1.5946 	   34.4810 	   22.0000 	   23.0000 	   51.2647
    1.7472 	   34.5355 	   22.0000 	   23.0000 	   51.3738
    1.5640 	   34.5895 	   22.0000 	   23.0000 	   51.4818
    1.7777 	   34.6445 	   22.0000 	   23.0000 	   51.5918
    1.6861 	   34.6985 	   22.0000 	   23.0000 	   51.6998
    1.5488 	   34.7560 	   22.0000 	   23.0000 	   51.8148
    1.4878 	   34.8155 	   22.0000 	   23.0000 	   51.9338
    1.7472 	   34.8750 	   22.0000 	   23.0000 	   52.0528
    1.5488 	   34.9360 	   22.0000 	   23.0000 	   52.1748
    1.6403 	   34.9960 	   22.0000 	   23.0000 	   52.2948
    1.6556 	   35.0590 	   22.0000 	   23.0000 	   52.4208
    1.6709 	   35.1200 	   22.0000 	   23.0000 	   52.5428
    1.6251 	   35.1780 	   22.0000 	   23.0000 	   52.6588
    1.7319 	   35.2390 	   22.0000 	   23.0000 	   52.7808
    1.5640 	   35.2995 	   22.0000 	   23.0000 	   52.9018
    1.6403 	   35.3610 	   22.0000 	   23.0000 	   53.0248
    1.6403 	   35.4235 	   22.0000 	   23.0000 	   53.1499
    1.7624 	   35.4830 	   22.0000 	   23.0000 	   53.2689
    1.7319 	   35.5465 	   22.0000 	   23.0000 	   53.3959
    1.5183 	   35.6065 	   22.0000 	   23.0000 	   53.5159
    1.7166 	   35.6665 	   22.0000 	   23.0000 	   53.6359
    1.6403 	   35.7260 	   22.0000 	   23.0000 	   53.7549
    1.7319 	   35.7890 	   22.0000 	   23.0000 	   53.8809
    1.6861 	   35.8480 	   22.0000 	   23.0000 	   53.9989
    1.6403 	   35.9095 	   22.0000 	   23.0000 	   54.1219
    1.7166 	   35.9710 	   22.0000 	   23.0000 	   54.2449
    1.5946 	   36.0310 	   22.0000 	   23.0000 	   54.3649
    1.6403 	   36.0910 	   22.0000 	   23.0000 	   54.4849
    1.7014 	   36.1455 	   22.0000 	   23.0000 	   54.5939
    1.7929 	   36.1995 	   22.0000 	   23.0000 	   54.7019
    1.8235 	   36.2540 	   22.0000 	   23.0000 	   54.8110
    1.5793 	   36.3115 	   22.0000 	   23.0000 	   54.9260
    1.6251 	   36.3720 	   22.0000 	   23.0000 	   55.0470
    1.6098 	   36.4340 	   22.0000 	   23.0000 	   55.1710
    1.6251 	   36.4950 	   22.0000 	   23.0000 	   55.2930
    1.7777 	   36.5545 	   22.0000 	   23.0000 	   55.4120
    1.6861 	   36.6150 	   22.0000 	   23.0000 	   55.5330
    1.8387 	   36.6775 	   22.0000 	   23.0000 	   55.6580
    1.7319 	   36.7375 	   22.0000 	   23.0000 	   55.7780
    1.7166 	   36.7965 	   22.0000 	   23.0000 	   55.8960
    1.8082 	   36.8580 	   22.0000 	   23.0000 	   56.0190
    1.8692 	   36.9200 	   22.0000 	   23.0000 	   56.1430
    1.8540 	   36.9810 	   22.0000 	   23.0000 	   56.2650
    1.7929 	   37.0380 	   22.0000 	   23.0000 	   56.3790
    1.7472 	   37.0980 	   22.0000 	   23.0000 	   56.4990
    1.7777 	   37.1590 	   22.0000 	   23.0000 	   56.6211
    1.7166 	   37.2200 	   22.0000 	   23.0000 	   56.7431
    1.6556 	   37.2805 	   22.0000 	   23.0000 	   56.8641
    1.8082 	   37.3415 	   22.0000 	   23.0000 	   56.9861
    1.8997 	   37.4005 	   22.0000 	   23.0000 	   57.1041
    1.7472 	   37.4595 	   22.0000 	   23.0000 	   57.2221
    1.8997 	   37.5215 	   22.0000 	   23.0000 	   57.3461
    1.8235 	   37.5830 	   22.0000 	   23.0000 	   57.4691
    1.7319 	   37.6440 	   22.0000 	   23.0000 	   57.5911
    1.9608 	   37.7055 	   22.0000 	   23.0000 	   57.7141
    1.7166 	   37.7665 	   22.0000 	   23.0000 	   57.8361
    1.5640 	   37.8275 	   22.0000 	   23.0000 	   57.9581
    1.8540 	   37.8890 	   22.0000 	   23.0000 	   58.0811
    1.9303 	   37.9505 	   22.0000 	   23.0000 	   58.2041
    1.8845 	   38.0110 	   22.0000 	   23.0000 	   58.3252
    1.8387 	   38.0755 	   22.0000 	   23.0000 	   58.4532
    1.9303 	   38.1360 	   22.0000 	   23.0000 	   58.5752
    1.9150 	   38.1985 	   22.0000 	   23.0000 	   58.7002
    1.8845 	   38.2580 	   22.0000 	   23.0000 	   58.8192
    1.5793 	   38.3185 	   22.0000 	   23.0000 	   58.9402
    1.8235 	   38.3740 	   22.0000 	   23.0000 	   59.0512
    1.7624 	   38.4300 	   22.0000 	   23.0000 	   59.1632
    1.8997 	   38.4845 	   22.0000 	   23.0000 	   59.2722
    1.9303 	   38.5400 	   22.0000 	   23.0000 	   59.3832
    1.8845 	   38.5945 	   22.0000 	   23.0000 	   59.4922
    2.0676 	   38.6490 	   22.0000 	   23.0000 	   59.6012
    1.9303 	   38.7045 	   22.0000 	   23.0000 	   59.7122
    1.9455 	   38.7620 	   22.0000 	   23.0000 	   59.8272
    1.9760 	   38.8235 	   22.0000 	   23.0000 	   59.9502
    1.8540 	   38.8860 	   22.0000 	   24.0000 	    0.0753
    2.0523 	   38.9455 	   22.0000 	   24.0000 	    0.1943
    2.0371 	   39.0040 	   22.0000 	   24.0000 	    0.3113
    1.9303 	   39.0605 	   22.0000 	   24.0000 	    0.4243
    2.0371 	   39.1155 	   22.0000 	   24.0000 	    0.5343
    1.9150 	   39.1740 	   22.0000 	   24.0000 	    0.6513
    1.9303 	   39.2350 	   22.0000 	   24.0000 	    0.7733
    1.8082 	   39.2975 	   22.0000 	   24.0000 	    0.8983
    1.9303 	   39.3605 	   22.0000 	   24.0000 	    1.0243
    2.0829 	   39.4205 	   22.0000 	   24.0000 	    1.1443
    1.9760 	   39.4835 	   22.0000 	   24.0000 	    1.2703
    1.9455 	   39.5440 	   22.0000 	   24.0000 	    1.3913
    1.8997 	   39.6040 	   22.0000 	   24.0000 	    1.5113
    1.9303 	   39.6655 	   22.0000 	   24.0000 	    1.6343
    2.0371 	   39.7240 	   22.0000 	   24.0000 	    1.7513
    1.9913 	   39.7790 	   22.0000 	   24.0000 	    1.8614
    2.2354 	   39.8375 	   22.0000 	   24.0000 	    1.9784
    2.0829 	   39.9005 	   22.0000 	   24.0000 	    2.1044
    2.1439 	   39.9625 	   22.0000 	   24.0000 	    2.2284
    2.0371 	   40.0210 	   22.0000 	   24.0000 	    2.3454
    1.9150 	   40.0780 	   22.0000 	   24.0000 	    2.4594
    1.9913 	   40.1335 	   22.0000 	   24.0000 	    2.5704
    2.0676 	   40.1880 	   22.0000 	   24.0000 	    2.6794
    2.0981 	   40.2490 	   22.0000 	   24.0000 	    2.8014
    2.2049 	   40.3050 	   22.0000 	   24.0000 	    2.9134
    2.0676 	   40.3600 	   22.0000 	   24.0000 	    3.0234
    2.1134 	   40.4165 	   22.0000 	   24.0000 	    3.1364
    2.0829 	   40.4725 	   22.0000 	   24.0000 	    3.2484
    2.1134 	   40.5275 	   22.0000 	   24.0000 	    3.3584
    2.0218 	   40.5910 	   22.0000 	   24.0000 	    3.4854
    2.1592 	   40.6280 	   22.0000 	   24.0000 	    3.5595