File: instron/independence/direction/l15w2/l15w2_65_30.txt
Thayer School of Engineering        Instron 4442 Mechanical Testing System
7/4/2018 8:16:22 PM

  Force (N)	Extension (mm)	Not Used	Not Used	Not Used	     Hour	    Minute	    Second
    0.3433 	    0.5125 	   20.0000 	   17.0000 	   18.7805
    0.2213 	    0.6040 	   20.0000 	   17.0000 	   18.9635
    0.4044 	    0.7115 	   20.0000 	   17.0000 	   19.1785
    0.4044 	    0.8160 	   20.0000 	   17.0000 	   19.3875
    0.2976 	    0.9200 	   20.0000 	   17.0000 	   19.5955
    0.2976 	    1.0230 	   20.0000 	   17.0000 	   19.8015
    0.3586 	    1.1035 	   20.0000 	   17.0000 	   19.9626
    0.2060 	    1.2005 	   20.0000 	   17.0000 	   20.1566
    0.2365 	    1.3005 	   20.0000 	   17.0000 	   20.3566
    0.3586 	    1.3960 	   20.0000 	   17.0000 	   20.5476
    0.2518 	    1.4960 	   20.0000 	   17.0000 	   20.7476
    0.2670 	    1.5940 	   20.0000 	   17.0000 	   20.9426
    0.3433 	    1.6585 	   20.0000 	   17.0000 	   21.0716
    0.2823 	    1.7240 	   20.0000 	   17.0000 	   21.2016
    0.2823 	    1.7895 	   20.0000 	   17.0000 	   21.3336
    0.2365 	    1.8540 	   20.0000 	   17.0000 	   21.4626
   -0.0381 	    1.9200 	   20.0000 	   17.0000 	   21.5946
    0.3738 	    2.0010 	   20.0000 	   17.0000 	   21.7557
    0.5417 	    2.0620 	   20.0000 	   17.0000 	   21.8787
    0.2213 	    2.1375 	   20.0000 	   17.0000 	   22.0297
    0.0229 	    2.1990 	   20.0000 	   17.0000 	   22.1527
    0.2518 	    2.2620 	   20.0000 	   17.0000 	   22.2787
    0.4501 	    2.3265 	   20.0000 	   17.0000 	   22.4077
    0.2518 	    2.3890 	   20.0000 	   17.0000 	   22.5327
    0.4654 	    2.4550 	   20.0000 	   17.0000 	   22.6647
    0.3281 	    2.5170 	   20.0000 	   17.0000 	   22.7887
    0.3586 	    2.5805 	   20.0000 	   17.0000 	   22.9157
    0.3891 	    2.6450 	   20.0000 	   17.0000 	   23.0447
    0.2518 	    2.7105 	   20.0000 	   17.0000 	   23.1757
    0.2213 	    2.7720 	   20.0000 	   17.0000 	   23.2987
    0.1144 	    2.8340 	   20.0000 	   17.0000 	   23.4227
    0.2518 	    2.8970 	   20.0000 	   17.0000 	   23.5488
    0.3128 	    2.9575 	   20.0000 	   17.0000 	   23.6698
    0.4501 	    3.0200 	   20.0000 	   17.0000 	   23.7948
    0.3433 	    3.0825 	   20.0000 	   17.0000 	   23.9198
    0.2976 	    3.1470 	   20.0000 	   17.0000 	   24.0488
    0.4196 	    3.2085 	   20.0000 	   17.0000 	   24.1718
    0.2670 	    3.2720 	   20.0000 	   17.0000 	   24.2988
    0.4349 	    3.3355 	   20.0000 	   17.0000 	   24.4258
    0.0076 	    3.3995 	   20.0000 	   17.0000 	   24.5538
    0.3128 	    3.4685 	   20.0000 	   17.0000 	   24.6918
    0.4959 	    3.5320 	   20.0000 	   17.0000 	   24.8188
    0.3891 	    3.5960 	   20.0000 	   17.0000 	   24.9468
    0.1755 	    3.6585 	   20.0000 	   17.0000 	   25.0718
    0.2670 	    3.7235 	   20.0000 	   17.0000 	   25.2019
    0.3433 	    3.7870 	   20.0000 	   17.0000 	   25.3289
    0.5264 	    3.8510 	   20.0000 	   17.0000 	   25.4569
   -0.0534 	    3.9145 	   20.0000 	   17.0000 	   25.5839
    0.0839 	    3.9780 	   20.0000 	   17.0000 	   25.7109
    0.3738 	    4.0415 	   20.0000 	   17.0000 	   25.8379
    0.2060 	    4.1020 	   20.0000 	   17.0000 	   25.9589
    0.3738 	    4.1665 	   20.0000 	   17.0000 	   26.0879
    0.3128 	    4.2275 	   20.0000 	   17.0000 	   26.2099
    0.2670 	    4.2910 	   20.0000 	   17.0000 	   26.3369
    0.4654 	    4.3540 	   20.0000 	   17.0000 	   26.4629
    0.5112 	    4.4155 	   20.0000 	   17.0000 	   26.5859
    0.2365 	    4.4845 	   20.0000 	   17.0000 	   26.7239
    0.3891 	    4.5480 	   20.0000 	   17.0000 	   26.8509
    0.4044 	    4.6095 	   20.0000 	   17.0000 	   26.9740
    0.0992 	    4.6740 	   20.0000 	   17.0000 	   27.1030
    0.3128 	    4.7370 	   20.0000 	   17.0000 	   27.2290
   -0.0229 	    4.7985 	   20.0000 	   17.0000 	   27.3520
    0.2976 	    4.8625 	   20.0000 	   17.0000 	   27.4800
    0.4196 	    4.9255 	   20.0000 	   17.0000 	   27.6060
    0.2976 	    4.9895 	   20.0000 	   17.0000 	   27.7340
    0.3281 	    5.0540 	   20.0000 	   17.0000 	   27.8630
    0.3586 	    5.1165 	   20.0000 	   17.0000 	   27.9880
    0.2518 	    5.1790 	   20.0000 	   17.0000 	   28.1130
    0.3738 	    5.2435 	   20.0000 	   17.0000 	   28.2420
    0.3738 	    5.3080 	   20.0000 	   17.0000 	   28.3710
    0.2976 	    5.3740 	   20.0000 	   17.0000 	   28.5030
    0.3281 	    5.4390 	   20.0000 	   17.0000 	   28.6330
    0.4654 	    5.5020 	   20.0000 	   17.0000 	   28.7591
    0.3738 	    5.5665 	   20.0000 	   17.0000 	   28.8881
    0.5722 	    5.6285 	   20.0000 	   17.0000 	   29.0121
    0.3586 	    5.6935 	   20.0000 	   17.0000 	   29.1421
    0.4959 	    5.7590 	   20.0000 	   17.0000 	   29.2731
    0.1602 	    5.8220 	   20.0000 	   17.0000 	   29.3991
    0.3281 	    5.8890 	   20.0000 	   17.0000 	   29.5331
    0.2823 	    5.9545 	   20.0000 	   17.0000 	   29.6641
    0.3738 	    6.0175 	   20.0000 	   17.0000 	   29.7901
    0.2518 	    6.0850 	   20.0000 	   17.0000 	   29.9251
    0.2670 	    6.1515 	   20.0000 	   17.0000 	   30.0581
    0.4807 	    6.2170 	   20.0000 	   17.0000 	   30.1891
    0.3586 	    6.2830 	   20.0000 	   17.0000 	   30.3211
    0.2976 	    6.3465 	   20.0000 	   17.0000 	   30.4482
    0.4196 	    6.4105 	   20.0000 	   17.0000 	   30.5762
    0.2823 	    6.4740 	   20.0000 	   17.0000 	   30.7032
    0.3433 	    6.5355 	   20.0000 	   17.0000 	   30.8262
    0.3738 	    6.5985 	   20.0000 	   17.0000 	   30.9522
    0.2823 	    6.6665 	   20.0000 	   17.0000 	   31.0882
    0.3891 	    6.7320 	   20.0000 	   17.0000 	   31.2192
    0.3128 	    6.7915 	   20.0000 	   17.0000 	   31.3382
    0.4654 	    6.8530 	   20.0000 	   17.0000 	   31.4612
    0.3128 	    6.9165 	   20.0000 	   17.0000 	   31.5882
    0.2518 	    6.9750 	   20.0000 	   17.0000 	   31.7052
    0.3433 	    7.0395 	   20.0000 	   17.0000 	   31.8342
    0.4654 	    7.1030 	   20.0000 	   17.0000 	   31.9612
    0.5722 	    7.1695 	   20.0000 	   17.0000 	   32.0932
    0.2976 	    7.2360 	   20.0000 	   17.0000 	   32.2273
    0.3891 	    7.3035 	   20.0000 	   17.0000 	   32.3623
    0.3891 	    7.3685 	   20.0000 	   17.0000 	   32.4923
    0.4959 	    7.4360 	   20.0000 	   17.0000 	   32.6273
    0.3738 	    7.5025 	   20.0000 	   17.0000 	   32.7603
    0.4044 	    7.5700 	   20.0000 	   17.0000 	   32.8953
    0.3281 	    7.6380 	   20.0000 	   17.0000 	   33.0313
    0.4501 	    7.7020 	   20.0000 	   17.0000 	   33.1593
    0.2670 	    7.7695 	   20.0000 	   17.0000 	   33.2943
    0.3891 	    7.8375 	   20.0000 	   17.0000 	   33.4303
    0.3433 	    7.9020 	   20.0000 	   17.0000 	   33.5593
    0.2823 	    7.9685 	   20.0000 	   17.0000 	   33.6923
    0.4654 	    8.0370 	   20.0000 	   17.0000 	   33.8293
    0.3891 	    8.1050 	   20.0000 	   17.0000 	   33.9654
    0.2060 	    8.1715 	   20.0000 	   17.0000 	   34.0984
    0.2060 	    8.2355 	   20.0000 	   17.0000 	   34.2264
    0.4196 	    8.2995 	   20.0000 	   17.0000 	   34.3544
    0.3738 	    8.3675 	   20.0000 	   17.0000 	   34.4904
    0.3281 	    8.4360 	   20.0000 	   17.0000 	   34.6274
    0.3586 	    8.5040 	   20.0000 	   17.0000 	   34.7634
    0.3891 	    8.5710 	   20.0000 	   17.0000 	   34.8974
    0.4349 	    8.6385 	   20.0000 	   17.0000 	   35.0324
    0.2823 	    8.7045 	   20.0000 	   17.0000 	   35.1644
    0.4044 	    8.7695 	   20.0000 	   17.0000 	   35.2944
    0.3738 	    8.8390 	   20.0000 	   17.0000 	   35.4334
    0.3738 	    8.9040 	   20.0000 	   17.0000 	   35.5634
    0.4044 	    8.9695 	   20.0000 	   17.0000 	   35.6945
    0.3433 	    9.0350 	   20.0000 	   17.0000 	   35.8255
    0.4349 	    9.0935 	   20.0000 	   17.0000 	   35.9425
    0.4196 	    9.1535 	   20.0000 	   17.0000 	   36.0625
    0.3738 	    9.2170 	   20.0000 	   17.0000 	   36.1895
    0.3738 	    9.2885 	   20.0000 	   17.0000 	   36.3325
    0.3891 	    9.3540 	   20.0000 	   17.0000 	   36.4635
    0.3586 	    9.4220 	   20.0000 	   17.0000 	   36.5995
    0.4654 	    9.4905 	   20.0000 	   17.0000 	   36.7365
    0.4654 	    9.5565 	   20.0000 	   17.0000 	   36.8685
    0.3281 	    9.6240 	   20.0000 	   17.0000 	   37.0035
    0.3586 	    9.6945 	   20.0000 	   17.0000 	   37.1445
    0.3281 	    9.7635 	   20.0000 	   17.0000 	   37.2825
    0.3738 	    9.8315 	   20.0000 	   17.0000 	   37.4185
    0.4349 	    9.8945 	   20.0000 	   17.0000 	   37.5446
    0.3891 	    9.9545 	   20.0000 	   17.0000 	   37.6646
    0.5112 	   10.0155 	   20.0000 	   17.0000 	   37.7866
    0.4807 	   10.0770 	   20.0000 	   17.0000 	   37.9096
    0.1907 	   10.1375 	   20.0000 	   17.0000 	   38.0306
    0.3128 	   10.1980 	   20.0000 	   17.0000 	   38.1516
    0.4044 	   10.2595 	   20.0000 	   17.0000 	   38.2746
    0.3586 	   10.3310 	   20.0000 	   17.0000 	   38.4166
    0.3433 	   10.4000 	   20.0000 	   17.0000 	   38.5546
    0.5570 	   10.4705 	   20.0000 	   17.0000 	   38.6956
    0.1755 	   10.5410 	   20.0000 	   17.0000 	   38.8366
    0.4959 	   10.6110 	   20.0000 	   17.0000 	   38.9766
    0.4196 	   10.6825 	   20.0000 	   17.0000 	   39.1196
    0.2976 	   10.7510 	   20.0000 	   17.0000 	   39.2567
    0.4349 	   10.8200 	   20.0000 	   17.0000 	   39.3947
    0.3738 	   10.8905 	   20.0000 	   17.0000 	   39.5347
    0.4044 	   10.9585 	   20.0000 	   17.0000 	   39.6717
    0.5722 	   11.0270 	   20.0000 	   17.0000 	   39.8087
    0.3433 	   11.0960 	   20.0000 	   17.0000 	   39.9467
    0.3891 	   11.1565 	   20.0000 	   17.0000 	   40.0677
    0.3738 	   11.2175 	   20.0000 	   17.0000 	   40.1897
   -0.0229 	   11.2855 	   20.0000 	   17.0000 	   40.3257
    0.4501 	   11.3535 	   20.0000 	   17.0000 	   40.4617
    0.3891 	   11.4215 	   20.0000 	   17.0000 	   40.5977
    0.3891 	   11.4915 	   20.0000 	   17.0000 	   40.7377
    0.2060 	   11.5535 	   20.0000 	   17.0000 	   40.8617
    0.1602 	   11.6220 	   20.0000 	   17.0000 	   40.9988
    0.3738 	   11.6875 	   20.0000 	   17.0000 	   41.1298
    0.3281 	   11.7590 	   20.0000 	   17.0000 	   41.2728
    0.3281 	   11.8290 	   20.0000 	   17.0000 	   41.4128
    0.3586 	   11.9015 	   20.0000 	   17.0000 	   41.5578
    0.4501 	   11.9725 	   20.0000 	   17.0000 	   41.6998
    0.3433 	   12.0395 	   20.0000 	   17.0000 	   41.8338
    0.5112 	   12.1095 	   20.0000 	   17.0000 	   41.9738
    0.2365 	   12.1790 	   20.0000 	   17.0000 	   42.1128
    0.3891 	   12.2470 	   20.0000 	   17.0000 	   42.2488
    0.3891 	   12.3215 	   20.0000 	   17.0000 	   42.3978
    0.3891 	   12.3865 	   20.0000 	   17.0000 	   42.5278
    0.4807 	   12.4535 	   20.0000 	   17.0000 	   42.6618
    0.4349 	   12.5235 	   20.0000 	   17.0000 	   42.8019
    0.1907 	   12.5950 	   20.0000 	   17.0000 	   42.9449
    0.5722 	   12.6635 	   20.0000 	   17.0000 	   43.0819
    0.3281 	   12.7325 	   20.0000 	   17.0000 	   43.2199
    0.4196 	   12.8045 	   20.0000 	   17.0000 	   43.3639
    0.3281 	   12.8720 	   20.0000 	   17.0000 	   43.4989
    0.2670 	   12.9415 	   20.0000 	   17.0000 	   43.6379
    0.3433 	   13.0120 	   20.0000 	   17.0000 	   43.7789
    0.4196 	   13.0820 	   20.0000 	   17.0000 	   43.9189
    0.4501 	   13.1500 	   20.0000 	   17.0000 	   44.0549
    0.5875 	   13.2160 	   20.0000 	   17.0000 	   44.1869
    0.4654 	   13.2865 	   20.0000 	   17.0000 	   44.3279
    0.5112 	   13.3575 	   20.0000 	   17.0000 	   44.4690
    0.4349 	   13.4285 	   20.0000 	   17.0000 	   44.6120
    0.5264 	   13.5035 	   20.0000 	   17.0000 	   44.7620
    0.3738 	   13.5705 	   20.0000 	   17.0000 	   44.8960
    0.4654 	   13.6345 	   20.0000 	   17.0000 	   45.0240
    0.4349 	   13.7040 	   20.0000 	   17.0000 	   45.1630
    0.3738 	   13.7675 	   20.0000 	   17.0000 	   45.2900
    0.3586 	   13.8335 	   20.0000 	   17.0000 	   45.4220
    0.3281 	   13.9035 	   20.0000 	   17.0000 	   45.5620
    0.5417 	   13.9725 	   20.0000 	   17.0000 	   45.7000
    0.3433 	   14.0430 	   20.0000 	   17.0000 	   45.8410
    0.3891 	   14.1125 	   20.0000 	   17.0000 	   45.9800
    0.4349 	   14.1845 	   20.0000 	   17.0000 	   46.1240
    0.4044 	   14.2545 	   20.0000 	   17.0000 	   46.2641
    0.4044 	   14.3240 	   20.0000 	   17.0000 	   46.4031
    0.4807 	   14.3875 	   20.0000 	   17.0000 	   46.5301
    0.5417 	   14.4515 	   20.0000 	   17.0000 	   46.6581
    0.3281 	   14.5150 	   20.0000 	   17.0000 	   46.7851
    0.3738 	   14.5810 	   20.0000 	   17.0000 	   46.9171
    0.4196 	   14.6440 	   20.0000 	   17.0000 	   47.0431
    0.3891 	   14.7165 	   20.0000 	   17.0000 	   47.1881
    0.4654 	   14.7910 	   20.0000 	   17.0000 	   47.3371
    0.3128 	   14.8620 	   20.0000 	   17.0000 	   47.4791
    0.3738 	   14.9330 	   20.0000 	   17.0000 	   47.6211
    0.4501 	   14.9975 	   20.0000 	   17.0000 	   47.7501
    0.4349 	   15.0615 	   20.0000 	   17.0000 	   47.8781
    0.3281 	   15.1300 	   20.0000 	   17.0000 	   48.0152
    0.3128 	   15.2010 	   20.0000 	   17.0000 	   48.1572
    0.4654 	   15.2695 	   20.0000 	   17.0000 	   48.2942
    0.4501 	   15.3355 	   20.0000 	   17.0000 	   48.4252
    0.4807 	   15.3995 	   20.0000 	   17.0000 	   48.5542
    0.3738 	   15.4675 	   20.0000 	   17.0000 	   48.6902
    0.3738 	   15.5310 	   20.0000 	   17.0000 	   48.8172
    0.4349 	   15.5960 	   20.0000 	   17.0000 	   48.9472
    0.3586 	   15.6660 	   20.0000 	   17.0000 	   49.0872
    0.4807 	   15.7385 	   20.0000 	   17.0000 	   49.2322
    0.4349 	   15.8110 	   20.0000 	   17.0000 	   49.3772
    0.3738 	   15.8845 	   20.0000 	   17.0000 	   49.5242
    0.4959 	   15.9575 	   20.0000 	   17.0000 	   49.6702
    0.3433 	   16.0310 	   20.0000 	   17.0000 	   49.8173
    0.4349 	   16.1045 	   20.0000 	   17.0000 	   49.9643
    0.5264 	   16.1760 	   20.0000 	   17.0000 	   50.1073
    0.5112 	   16.2500 	   20.0000 	   17.0000 	   50.2553
    0.6638 	   16.3215 	   20.0000 	   17.0000 	   50.3983
    0.5417 	   16.3930 	   20.0000 	   17.0000 	   50.5413
    0.5570 	   16.4705 	   20.0000 	   17.0000 	   50.6963
    0.3433 	   16.5435 	   20.0000 	   17.0000 	   50.8423
    0.3433 	   16.6155 	   20.0000 	   17.0000 	   50.9863
    0.5112 	   16.6885 	   20.0000 	   17.0000 	   51.1323
    0.4349 	   16.7620 	   20.0000 	   17.0000 	   51.2793
    0.5112 	   16.8340 	   20.0000 	   17.0000 	   51.4234
    0.2670 	   16.9075 	   20.0000 	   17.0000 	   51.5704
    0.5722 	   16.9810 	   20.0000 	   17.0000 	   51.7174
    0.4959 	   17.0550 	   20.0000 	   17.0000 	   51.8654
    0.3738 	   17.1280 	   20.0000 	   17.0000 	   52.0114
    0.1297 	   17.2000 	   20.0000 	   17.0000 	   52.1554
    0.6027 	   17.2740 	   20.0000 	   17.0000 	   52.3034
    0.5417 	   17.3500 	   20.0000 	   17.0000 	   52.4554
    0.4349 	   17.4260 	   20.0000 	   17.0000 	   52.6074
    0.4807 	   17.5060 	   20.0000 	   17.0000 	   52.7674
    0.4196 	   17.5815 	   20.0000 	   17.0000 	   52.9184
    0.4654 	   17.6555 	   20.0000 	   17.0000 	   53.0664
    0.5112 	   17.7275 	   20.0000 	   17.0000 	   53.2105
    0.3891 	   17.8015 	   20.0000 	   17.0000 	   53.3585
    0.6485 	   17.8745 	   20.0000 	   17.0000 	   53.5045
    0.6332 	   17.9460 	   20.0000 	   17.0000 	   53.6475
    0.3738 	   18.0225 	   20.0000 	   17.0000 	   53.8005
    0.5417 	   18.0985 	   20.0000 	   17.0000 	   53.9525
    0.4044 	   18.1710 	   20.0000 	   17.0000 	   54.0975
    0.4654 	   18.2435 	   20.0000 	   17.0000 	   54.2425
    0.5112 	   18.3135 	   20.0000 	   17.0000 	   54.3825
    0.5570 	   18.3865 	   20.0000 	   17.0000 	   54.5285
    0.4654 	   18.4600 	   20.0000 	   17.0000 	   54.6755
    0.5264 	   18.5345 	   20.0000 	   17.0000 	   54.8245
    0.3891 	   18.6115 	   20.0000 	   17.0000 	   54.9786
    0.4044 	   18.6860 	   20.0000 	   17.0000 	   55.1276
    0.6180 	   18.7615 	   20.0000 	   17.0000 	   55.2786
    0.4349 	   18.8365 	   20.0000 	   17.0000 	   55.4286
    0.4501 	   18.9125 	   20.0000 	   17.0000 	   55.5806
    0.3128 	   18.9875 	   20.0000 	   17.0000 	   55.7306
    0.4196 	   19.0620 	   20.0000 	   17.0000 	   55.8786
    0.5722 	   19.1325 	   20.0000 	   17.0000 	   56.0196
    0.4501 	   19.2060 	   20.0000 	   17.0000 	   56.1666
    0.3891 	   19.2805 	   20.0000 	   17.0000 	   56.3156
    0.4501 	   19.3550 	   20.0000 	   17.0000 	   56.4646
    0.4959 	   19.4280 	   20.0000 	   17.0000 	   56.6106
    0.5417 	   19.5045 	   20.0000 	   17.0000 	   56.7637
    0.5264 	   19.5835 	   20.0000 	   17.0000 	   56.9217
    0.4959 	   19.6610 	   20.0000 	   17.0000 	   57.0767
    0.5112 	   19.7380 	   20.0000 	   17.0000 	   57.2307
    0.2670 	   19.8130 	   20.0000 	   17.0000 	   57.3807
    0.6790 	   19.8895 	   20.0000 	   17.0000 	   57.5337
    0.4654 	   19.9655 	   20.0000 	   17.0000 	   57.6857
    0.4959 	   20.0425 	   20.0000 	   17.0000 	   57.8397
    0.3586 	   20.1180 	   20.0000 	   17.0000 	   57.9907
    0.6332 	   20.1960 	   20.0000 	   17.0000 	   58.1467
    0.5570 	   20.2705 	   20.0000 	   17.0000 	   58.2957
    0.4349 	   20.3465 	   20.0000 	   17.0000 	   58.4478
    0.6332 	   20.4205 	   20.0000 	   17.0000 	   58.5958
    0.5112 	   20.4935 	   20.0000 	   17.0000 	   58.7418
    0.6180 	   20.5705 	   20.0000 	   17.0000 	   58.8958
    0.4654 	   20.6455 	   20.0000 	   17.0000 	   59.0458
    0.4196 	   20.7215 	   20.0000 	   17.0000 	   59.1978
    0.3891 	   20.7945 	   20.0000 	   17.0000 	   59.3438
    0.5875 	   20.8705 	   20.0000 	   17.0000 	   59.4958
    0.4196 	   20.9445 	   20.0000 	   17.0000 	   59.6438
    0.3433 	   21.0180 	   20.0000 	   17.0000 	   59.7908
    0.6638 	   21.0945 	   20.0000 	   17.0000 	   59.9438
    0.4654 	   21.1675 	   20.0000 	   18.0000 	    0.0898
    0.4959 	   21.2435 	   20.0000 	   18.0000 	    0.2419
    0.5570 	   21.3135 	   20.0000 	   18.0000 	    0.3819
    0.4196 	   21.3895 	   20.0000 	   18.0000 	    0.5339
    0.5570 	   21.4720 	   20.0000 	   18.0000 	    0.6989
    0.5264 	   21.5435 	   20.0000 	   18.0000 	    0.8419
    0.6943 	   21.6120 	   20.0000 	   18.0000 	    0.9789
    0.6485 	   21.6880 	   20.0000 	   18.0000 	    1.1309
    0.5875 	   21.7640 	   20.0000 	   18.0000 	    1.2829
    0.5722 	   21.8410 	   20.0000 	   18.0000 	    1.4369
    0.3281 	   21.9165 	   20.0000 	   18.0000 	    1.5879
    0.7248 	   21.9920 	   20.0000 	   18.0000 	    1.7389
    0.5417 	   22.0695 	   20.0000 	   18.0000 	    1.8939
    0.5722 	   22.1475 	   20.0000 	   18.0000 	    2.0500
    0.5264 	   22.2255 	   20.0000 	   18.0000 	    2.2060
    0.6332 	   22.3030 	   20.0000 	   18.0000 	    2.3610
    0.2060 	   22.3790 	   20.0000 	   18.0000 	    2.5130
    0.4654 	   22.4550 	   20.0000 	   18.0000 	    2.6650
    0.3586 	   22.5310 	   20.0000 	   18.0000 	    2.8170
    0.5722 	   22.6110 	   20.0000 	   18.0000 	    2.9770
    0.4654 	   22.6860 	   20.0000 	   18.0000 	    3.1270
    0.5570 	   22.7635 	   20.0000 	   18.0000 	    3.2820
    0.5417 	   22.8415 	   20.0000 	   18.0000 	    3.4380
    0.4501 	   22.9170 	   20.0000 	   18.0000 	    3.5890
    0.6180 	   22.9940 	   20.0000 	   18.0000 	    3.7431
    0.6332 	   23.0740 	   20.0000 	   18.0000 	    3.9031
    0.4959 	   23.1505 	   20.0000 	   18.0000 	    4.0561
    0.6790 	   23.2195 	   20.0000 	   18.0000 	    4.1941
    0.5875 	   23.2910 	   20.0000 	   18.0000 	    4.3371
    0.7095 	   23.3600 	   20.0000 	   18.0000 	    4.4751
    0.4959 	   23.4295 	   20.0000 	   18.0000 	    4.6141
    0.5875 	   23.5040 	   20.0000 	   18.0000 	    4.7631
    0.4959 	   23.5855 	   20.0000 	   18.0000 	    4.9261
    0.6332 	   23.6650 	   20.0000 	   18.0000 	    5.0851
    0.6332 	   23.7430 	   20.0000 	   18.0000 	    5.2411
    0.5264 	   23.8195 	   20.0000 	   18.0000 	    5.3941
    0.5875 	   23.8960 	   20.0000 	   18.0000 	    5.5472
    0.5417 	   23.9740 	   20.0000 	   18.0000 	    5.7032
    0.6180 	   24.0555 	   20.0000 	   18.0000 	    5.8662
    0.5417 	   24.1330 	   20.0000 	   18.0000 	    6.0212
    0.4501 	   24.2105 	   20.0000 	   18.0000 	    6.1762
    0.6485 	   24.2835 	   20.0000 	   18.0000 	    6.3222
    0.6790 	   24.3535 	   20.0000 	   18.0000 	    6.4622
    0.5875 	   24.4240 	   20.0000 	   18.0000 	    6.6032
    0.5722 	   24.4945 	   20.0000 	   18.0000 	    6.7442
    0.6180 	   24.5690 	   20.0000 	   18.0000 	    6.8932
    0.6027 	   24.6390 	   20.0000 	   18.0000 	    7.0332
    0.3433 	   24.7095 	   20.0000 	   18.0000 	    7.1743
    0.5875 	   24.7835 	   20.0000 	   18.0000 	    7.3223
    0.7095 	   24.8550 	   20.0000 	   18.0000 	    7.4653
    0.5722 	   24.9260 	   20.0000 	   18.0000 	    7.6073
    0.4959 	   24.9990 	   20.0000 	   18.0000 	    7.7533
    0.6027 	   25.0815 	   20.0000 	   18.0000 	    7.9183
    0.5570 	   25.1615 	   20.0000 	   18.0000 	    8.0783
    0.5722 	   25.2395 	   20.0000 	   18.0000 	    8.2343
    0.6485 	   25.3165 	   20.0000 	   18.0000 	    8.3883
    0.5112 	   25.3945 	   20.0000 	   18.0000 	    8.5443
    0.3433 	   25.4730 	   20.0000 	   18.0000 	    8.7013
    0.5722 	   25.5465 	   20.0000 	   18.0000 	    8.8483
    0.4501 	   25.6190 	   20.0000 	   18.0000 	    8.9934
    0.5417 	   25.6900 	   20.0000 	   18.0000 	    9.1354
    0.5570 	   25.7700 	   20.0000 	   18.0000 	    9.2954
    0.5570 	   25.8480 	   20.0000 	   18.0000 	    9.4514
    0.4501 	   25.9230 	   20.0000 	   18.0000 	    9.6014
    0.6638 	   25.9955 	   20.0000 	   18.0000 	    9.7464
    0.5112 	   26.0695 	   20.0000 	   18.0000 	    9.8944
    0.5570 	   26.1410 	   20.0000 	   18.0000 	   10.0374
    0.6943 	   26.2135 	   20.0000 	   18.0000 	   10.1824
    0.8164 	   26.2885 	   20.0000 	   18.0000 	   10.3324
    0.5264 	   26.3700 	   20.0000 	   18.0000 	   10.4954
    0.5875 	   26.4510 	   20.0000 	   18.0000 	   10.6574
    0.5570 	   26.5300 	   20.0000 	   18.0000 	   10.8155
    0.6180 	   26.6100 	   20.0000 	   18.0000 	   10.9755
    0.6943 	   26.6890 	   20.0000 	   18.0000 	   11.1335
    0.5875 	   26.7650 	   20.0000 	   18.0000 	   11.2855
    0.5875 	   26.8420 	   20.0000 	   18.0000 	   11.4395
    0.5570 	   26.9225 	   20.0000 	   18.0000 	   11.6005
    0.6027 	   27.0010 	   20.0000 	   18.0000 	   11.7575
    0.4654 	   27.0805 	   20.0000 	   18.0000 	   11.9165
    0.8164 	   27.1600 	   20.0000 	   18.0000 	   12.0755
    0.7095 	   27.2425 	   20.0000 	   18.0000 	   12.2405
    0.4959 	   27.3240 	   20.0000 	   18.0000 	   12.4036
    0.5417 	   27.4010 	   20.0000 	   18.0000 	   12.5576
    0.6943 	   27.4730 	   20.0000 	   18.0000 	   12.7016
    0.6027 	   27.5515 	   20.0000 	   18.0000 	   12.8586
    0.5570 	   27.6310 	   20.0000 	   18.0000 	   13.0176
    0.6943 	   27.7110 	   20.0000 	   18.0000 	   13.1776
    0.5722 	   27.7905 	   20.0000 	   18.0000 	   13.3356
    0.6180 	   27.8710 	   20.0000 	   18.0000 	   13.4966
    0.6180 	   27.9480 	   20.0000 	   18.0000 	   13.6506
    0.8011 	   28.0215 	   20.0000 	   18.0000 	   13.7976
    0.7553 	   28.0970 	   20.0000 	   18.0000 	   13.9486
    0.6943 	   28.1695 	   20.0000 	   18.0000 	   14.0936
    0.6485 	   28.2450 	   20.0000 	   18.0000 	   14.2447
    0.6180 	   28.3250 	   20.0000 	   18.0000 	   14.4047
    0.3586 	   28.3980 	   20.0000 	   18.0000 	   14.5507
    0.6027 	   28.4725 	   20.0000 	   18.0000 	   14.6997
    0.6790 	   28.5460 	   20.0000 	   18.0000 	   14.8467
    0.5875 	   28.6195 	   20.0000 	   18.0000 	   14.9937
    0.6027 	   28.7005 	   20.0000 	   18.0000 	   15.1557
    0.6027 	   28.7845 	   20.0000 	   18.0000 	   15.3237
    0.7248 	   28.8660 	   20.0000 	   18.0000 	   15.4867
    0.7706 	   28.9485 	   20.0000 	   18.0000 	   15.6517
    0.6943 	   29.0305 	   20.0000 	   18.0000 	   15.8157
    0.6332 	   29.1095 	   20.0000 	   18.0000 	   15.9738
    0.6790 	   29.1835 	   20.0000 	   18.0000 	   16.1218
    0.5264 	   29.2645 	   20.0000 	   18.0000 	   16.2838
    0.5417 	   29.3465 	   20.0000 	   18.0000 	   16.4478
    0.5570 	   29.4300 	   20.0000 	   18.0000 	   16.6148
    0.7401 	   29.5150 	   20.0000 	   18.0000 	   16.7848
    0.6638 	   29.5985 	   20.0000 	   18.0000 	   16.9518
    0.3738 	   29.6780 	   20.0000 	   18.0000 	   17.1108
    0.6332 	   29.7565 	   20.0000 	   18.0000 	   17.2678
    0.6180 	   29.8390 	   20.0000 	   18.0000 	   17.4328
    0.7401 	   29.9185 	   20.0000 	   18.0000 	   17.5918
    0.6027 	   30.0000 	   20.0000 	   18.0000 	   17.7549
    0.7248 	   30.0835 	   20.0000 	   18.0000 	   17.9219
    0.5722 	   30.1610 	   20.0000 	   18.0000 	   18.0769
    0.6943 	   30.2350 	   20.0000 	   18.0000 	   18.2249
    0.7095 	   30.3190 	   20.0000 	   18.0000 	   18.3929
    0.8011 	   30.4010 	   20.0000 	   18.0000 	   18.5569
    0.6638 	   30.4805 	   20.0000 	   18.0000 	   18.7159
    0.6485 	   30.5640 	   20.0000 	   18.0000 	   18.8829
    0.6638 	   30.6465 	   20.0000 	   18.0000 	   19.0479
    0.7248 	   30.7300 	   20.0000 	   18.0000 	   19.2149
    0.6180 	   30.8110 	   20.0000 	   18.0000 	   19.3769
    0.5112 	   30.8915 	   20.0000 	   18.0000 	   19.5380
    0.7858 	   30.9725 	   20.0000 	   18.0000 	   19.7000
    0.7095 	   31.0535 	   20.0000 	   18.0000 	   19.8620
    0.6332 	   31.1305 	   20.0000 	   18.0000 	   20.0160
    0.5875 	   31.2050 	   20.0000 	   18.0000 	   20.1650
    0.5875 	   31.2865 	   20.0000 	   18.0000 	   20.3280
    0.6790 	   31.3665 	   20.0000 	   18.0000 	   20.4880
    0.6790 	   31.4515 	   20.0000 	   18.0000 	   20.6580
    0.6332 	   31.5290 	   20.0000 	   18.0000 	   20.8130
    0.5722 	   31.6025 	   20.0000 	   18.0000 	   20.9600
    0.3433 	   31.6810 	   20.0000 	   18.0000 	   21.1170
    0.8011 	   31.7565 	   20.0000 	   18.0000 	   21.2681
    0.5875 	   31.8320 	   20.0000 	   18.0000 	   21.4191
    0.7553 	   31.9070 	   20.0000 	   18.0000 	   21.5691
    0.5417 	   31.9830 	   20.0000 	   18.0000 	   21.7211
    0.7706 	   32.0605 	   20.0000 	   18.0000 	   21.8761
    0.4044 	   32.1380 	   20.0000 	   18.0000 	   22.0311
    0.6943 	   32.2155 	   20.0000 	   18.0000 	   22.1861
    0.7706 	   32.2915 	   20.0000 	   18.0000 	   22.3381
    0.6638 	   32.3730 	   20.0000 	   18.0000 	   22.5011
    0.8316 	   32.4575 	   20.0000 	   18.0000 	   22.6701
    0.6027 	   32.5415 	   20.0000 	   18.0000 	   22.8381
    0.5875 	   32.6235 	   20.0000 	   18.0000 	   23.0022
    0.7858 	   32.7080 	   20.0000 	   18.0000 	   23.1712
    0.6790 	   32.7870 	   20.0000 	   18.0000 	   23.3292
    0.6790 	   32.8635 	   20.0000 	   18.0000 	   23.4822
    0.6943 	   32.9425 	   20.0000 	   18.0000 	   23.6402
    0.8011 	   33.0245 	   20.0000 	   18.0000 	   23.8042
    0.6180 	   33.1030 	   20.0000 	   18.0000 	   23.9602
    0.6485 	   33.1810 	   20.0000 	   18.0000 	   24.1172
    0.7858 	   33.2585 	   20.0000 	   18.0000 	   24.2722
    0.6485 	   33.3355 	   20.0000 	   18.0000 	   24.4262
    0.6485 	   33.4145 	   20.0000 	   18.0000 	   24.5842
    0.5570 	   33.4980 	   20.0000 	   18.0000 	   24.7513
    0.7858 	   33.5815 	   20.0000 	   18.0000 	   24.9183
    0.6027 	   33.6585 	   20.0000 	   18.0000 	   25.0723
    0.6943 	   33.7360 	   20.0000 	   18.0000 	   25.2273
    0.7553 	   33.8135 	   20.0000 	   18.0000 	   25.3823
    0.6638 	   33.8975 	   20.0000 	   18.0000 	   25.5503
    0.6332 	   33.9810 	   20.0000 	   18.0000 	   25.7173
    0.6790 	   34.0620 	   20.0000 	   18.0000 	   25.8793
    0.5112 	   34.1395 	   20.0000 	   18.0000 	   26.0343
    0.6790 	   34.2160 	   20.0000 	   18.0000 	   26.1873
    0.8011 	   34.3020 	   20.0000 	   18.0000 	   26.3593
    0.6180 	   34.3860 	   20.0000 	   18.0000 	   26.5274
    0.6332 	   34.4735 	   20.0000 	   18.0000 	   26.7024
    0.6027 	   34.5600 	   20.0000 	   18.0000 	   26.8754
    0.7401 	   34.6375 	   20.0000 	   18.0000 	   27.0304
    0.5875 	   34.7155 	   20.0000 	   18.0000 	   27.1864
    0.7706 	   34.7915 	   20.0000 	   18.0000 	   27.3384
    0.5570 	   34.8710 	   20.0000 	   18.0000 	   27.4974
    0.6485 	   34.9555 	   20.0000 	   18.0000 	   27.6664
    0.6027 	   35.0340 	   20.0000 	   18.0000 	   27.8234
    0.6638 	   35.1170 	   20.0000 	   18.0000 	   27.9894
    0.5264 	   35.1985 	   20.0000 	   18.0000 	   28.1525
    0.6332 	   35.2750 	   20.0000 	   18.0000 	   28.3055
    0.3891 	   35.3520 	   20.0000 	   18.0000 	   28.4595
    0.7706 	   35.4335 	   20.0000 	   18.0000 	   28.6225
    0.7858 	   35.5185 	   20.0000 	   18.0000 	   28.7925
    0.7095 	   35.6015 	   20.0000 	   18.0000 	   28.9585
    0.5875 	   35.6865 	   20.0000 	   18.0000 	   29.1285
    0.7858 	   35.7690 	   20.0000 	   18.0000 	   29.2935
    0.4959 	   35.8540 	   20.0000 	   18.0000 	   29.4635
    0.6485 	   35.9385 	   20.0000 	   18.0000 	   29.6325
    0.6332 	   36.0240 	   20.0000 	   18.0000 	   29.8035
    0.6638 	   36.1095 	   20.0000 	   18.0000 	   29.9746
    0.4654 	   36.1955 	   20.0000 	   18.0000 	   30.1466
    0.7706 	   36.2815 	   20.0000 	   18.0000 	   30.3186
    0.7095 	   36.3670 	   20.0000 	   18.0000 	   30.4896
    0.7706 	   36.4515 	   20.0000 	   18.0000 	   30.6586
    0.7706 	   36.5285 	   20.0000 	   18.0000 	   30.8116
    0.7248 	   36.6045 	   20.0000 	   18.0000 	   30.9636
    0.6943 	   36.6890 	   20.0000 	   18.0000 	   31.1326
    0.7706 	   36.7740 	   20.0000 	   18.0000 	   31.3026
    0.7095 	   36.8560 	   20.0000 	   18.0000 	   31.4666
    0.7553 	   36.9375 	   20.0000 	   18.0000 	   31.6297
    0.7401 	   37.0220 	   20.0000 	   18.0000 	   31.7987
    0.7248 	   37.1030 	   20.0000 	   18.0000 	   31.9607
    0.7858 	   37.1800 	   20.0000 	   18.0000 	   32.1147
    0.6332 	   37.2650 	   20.0000 	   18.0000 	   32.2847
    0.6943 	   37.3500 	   20.0000 	   18.0000 	   32.4547
    0.7858 	   37.4360 	   20.0000 	   18.0000 	   32.6267
    0.7401 	   37.5215 	   20.0000 	   18.0000 	   32.7977
    0.8621 	   37.6065 	   20.0000 	   18.0000 	   32.9677
    0.7706 	   37.6910 	   20.0000 	   18.0000 	   33.1367
    0.7401 	   37.7735 	   20.0000 	   18.0000 	   33.3017
    0.7095 	   37.8580 	   20.0000 	   18.0000 	   33.4708
    0.5722 	   37.9445 	   20.0000 	   18.0000 	   33.6438
    0.6485 	   38.0295 	   20.0000 	   18.0000 	   33.8138
    0.7095 	   38.1115 	   20.0000 	   18.0000 	   33.9778
    0.6943 	   38.1910 	   20.0000 	   18.0000 	   34.1368
    0.7248 	   38.2735 	   20.0000 	   18.0000 	   34.3018
    0.4349 	   38.3580 	   20.0000 	   18.0000 	   34.4708
    0.6943 	   38.4520 	   20.0000 	   18.0000 	   34.6588
    1.0147 	   38.5385 	   20.0000 	   18.0000 	   34.8318
    0.7706 	   38.6250 	   20.0000 	   18.0000 	   35.0048
    0.6790 	   38.7110 	   20.0000 	   18.0000 	   35.1769
    0.6180 	   38.7950 	   20.0000 	   18.0000 	   35.3449
    0.7858 	   38.8810 	   20.0000 	   18.0000 	   35.5169
    0.7858 	   38.9660 	   20.0000 	   18.0000 	   35.6869
    0.8316 	   39.0530 	   20.0000 	   18.0000 	   35.8609
    0.9995 	   39.1355 	   20.0000 	   18.0000 	   36.0259
    0.8011 	   39.2140 	   20.0000 	   18.0000 	   36.1829
    0.6790 	   39.2920 	   20.0000 	   18.0000 	   36.3389
    0.4654 	   39.3720 	   20.0000 	   18.0000 	   36.4989
    0.7401 	   39.4565 	   20.0000 	   18.0000 	   36.6679
    0.8164 	   39.5435 	   20.0000 	   18.0000 	   36.8419
    0.6943 	   39.6270 	   20.0000 	   18.0000 	   37.0090
    0.8011 	   39.7135 	   20.0000 	   18.0000 	   37.1820
    0.7095 	   39.7985 	   20.0000 	   18.0000 	   37.3520
    0.5570 	   39.8845 	   20.0000 	   18.0000 	   37.5240
    0.7095 	   39.9690 	   20.0000 	   18.0000 	   37.6930
    0.8469 	   40.0560 	   20.0000 	   18.0000 	   37.8670
    0.7401 	   40.1410 	   20.0000 	   18.0000 	   38.0370
    0.7248 	   40.2265 	   20.0000 	   18.0000 	   38.2080
    0.7553 	   40.3070 	   20.0000 	   18.0000 	   38.3690
    0.7706 	   40.3925 	   20.0000 	   18.0000 	   38.5400
    0.9232 	   40.4770 	   20.0000 	   18.0000 	   38.7091
    0.7706 	   40.5595 	   20.0000 	   18.0000 	   38.8741
    0.8164 	   40.6435 	   20.0000 	   18.0000 	   39.0421
    0.9537 	   40.7325 	   20.0000 	   18.0000 	   39.2201
    0.7858 	   40.8195 	   20.0000 	   18.0000 	   39.3941
    0.8621 	   40.9060 	   20.0000 	   18.0000 	   39.5671
    0.8469 	   40.9945 	   20.0000 	   18.0000 	   39.7441
    0.8621 	   41.0775 	   20.0000 	   18.0000 	   39.9101
    0.7401 	   41.1590 	   20.0000 	   18.0000 	   40.0731
    0.8469 	   41.2425 	   20.0000 	   18.0000 	   40.2401
    0.8011 	   41.3220 	   20.0000 	   18.0000 	   40.3992
    0.7401 	   41.4070 	   20.0000 	   18.0000 	   40.5692
    0.8621 	   41.4935 	   20.0000 	   18.0000 	   40.7422
    0.7706 	   41.5735 	   20.0000 	   18.0000 	   40.9022
    0.7401 	   41.6590 	   20.0000 	   18.0000 	   41.0732
    0.7401 	   41.7435 	   20.0000 	   18.0000 	   41.2422
    0.7706 	   41.8245 	   20.0000 	   18.0000 	   41.4042
    0.8469 	   41.9040 	   20.0000 	   18.0000 	   41.5632
    0.8011 	   41.9830 	   20.0000 	   18.0000 	   41.7212
    1.0300 	   42.0665 	   20.0000 	   18.0000 	   41.8882
    0.4501 	   42.1510 	   20.0000 	   18.0000 	   42.0572
    0.7858 	   42.2390 	   20.0000 	   18.0000 	   42.2333
    0.9537 	   42.3250 	   20.0000 	   18.0000 	   42.4053
    0.8927 	   42.4135 	   20.0000 	   18.0000 	   42.5823
    0.8774 	   42.5020 	   20.0000 	   18.0000 	   42.7593
    0.7248 	   42.5875 	   20.0000 	   18.0000 	   42.9303
    0.9232 	   42.6745 	   20.0000 	   18.0000 	   43.1043
    1.0452 	   42.7630 	   20.0000 	   18.0000 	   43.2813
    0.8164 	   42.8525 	   20.0000 	   18.0000 	   43.4603
    0.8469 	   42.9390 	   20.0000 	   18.0000 	   43.6333
    0.8927 	   43.0255 	   20.0000 	   18.0000 	   43.8063
    0.7401 	   43.1145 	   20.0000 	   18.0000 	   43.9844
    0.6332 	   43.2000 	   20.0000 	   18.0000 	   44.1554
    0.9232 	   43.2860 	   20.0000 	   18.0000 	   44.3274
    0.7858 	   43.3735 	   20.0000 	   18.0000 	   44.5024
    0.7401 	   43.4625 	   20.0000 	   18.0000 	   44.6804
    0.6790 	   43.5495 	   20.0000 	   18.0000 	   44.8544
    0.9995 	   43.6370 	   20.0000 	   18.0000 	   45.0294
    0.9232 	   43.7195 	   20.0000 	   18.0000 	   45.1944
    0.7248 	   43.8050 	   20.0000 	   18.0000 	   45.3654
    0.8469 	   43.8910 	   20.0000 	   18.0000 	   45.5374
    0.8011 	   43.9785 	   20.0000 	   18.0000 	   45.7125
    0.8316 	   44.0645 	   20.0000 	   18.0000 	   45.8845
    0.5417 	   44.1455 	   20.0000 	   18.0000 	   46.0465
    0.5264 	   44.2310 	   20.0000 	   18.0000 	   46.2175
    0.8011 	   44.3185 	   20.0000 	   18.0000 	   46.3925
    0.9079 	   44.4075 	   20.0000 	   18.0000 	   46.5705
    0.8927 	   44.4975 	   20.0000 	   18.0000 	   46.7505
    0.8469 	   44.5835 	   20.0000 	   18.0000 	   46.9225
    0.8469 	   44.6705 	   20.0000 	   18.0000 	   47.0965
    0.7095 	   44.7585 	   20.0000 	   18.0000 	   47.2725
    0.8621 	   44.8485 	   20.0000 	   18.0000 	   47.4526
    0.8469 	   44.9380 	   20.0000 	   18.0000 	   47.6316
    0.7401 	   45.0230 	   20.0000 	   18.0000 	   47.8016
    0.9232 	   45.1075 	   20.0000 	   18.0000 	   47.9706
    0.8774 	   45.1940 	   20.0000 	   18.0000 	   48.1436
    0.8621 	   45.2790 	   20.0000 	   18.0000 	   48.3126
    0.8469 	   45.3605 	   20.0000 	   18.0000 	   48.4756
    0.8316 	   45.4515 	   20.0000 	   18.0000 	   48.6576
    0.8621 	   45.5315 	   20.0000 	   18.0000 	   48.8176
    0.7706 	   45.6130 	   20.0000 	   18.0000 	   48.9806
    1.0452 	   45.7000 	   20.0000 	   18.0000 	   49.1547
    0.9232 	   45.7805 	   20.0000 	   18.0000 	   49.3157
    0.8469 	   45.8660 	   20.0000 	   18.0000 	   49.4867
    0.8164 	   45.9485 	   20.0000 	   18.0000 	   49.6517
    0.8621 	   46.0320 	   20.0000 	   18.0000 	   49.8187
    0.6943 	   46.1160 	   20.0000 	   18.0000 	   49.9867
    0.8774 	   46.2060 	   20.0000 	   18.0000 	   50.1667
    1.0300 	   46.2960 	   20.0000 	   18.0000 	   50.3467
    0.9384 	   46.3800 	   20.0000 	   18.0000 	   50.5147
    0.9079 	   46.4740 	   20.0000 	   18.0000 	   50.7027
    0.8469 	   46.5595 	   20.0000 	   18.0000 	   50.8737
    0.8469 	   46.6475 	   20.0000 	   18.0000 	   51.0498
    0.8774 	   46.7305 	   20.0000 	   18.0000 	   51.2158
    0.9232 	   46.8125 	   20.0000 	   18.0000 	   51.3798
    0.5570 	   46.8960 	   20.0000 	   18.0000 	   51.5468
    0.7706 	   46.9845 	   20.0000 	   18.0000 	   51.7238
    0.9384 	   47.0685 	   20.0000 	   18.0000 	   51.8918
    0.9842 	   47.1505 	   20.0000 	   18.0000 	   52.0558
    0.8164 	   47.2355 	   20.0000 	   18.0000 	   52.2258
    0.9232 	   47.3180 	   20.0000 	   18.0000 	   52.3908
    0.9537 	   47.4010 	   20.0000 	   18.0000 	   52.5568
    0.8621 	   47.4860 	   20.0000 	   18.0000 	   52.7259
    0.8011 	   47.5730 	   20.0000 	   18.0000 	   52.9009
    0.9537 	   47.6630 	   20.0000 	   18.0000 	   53.0809
    1.0147 	   47.7510 	   20.0000 	   18.0000 	   53.2569
    1.0300 	   47.8400 	   20.0000 	   18.0000 	   53.4349
    0.8774 	   47.9300 	   20.0000 	   18.0000 	   53.6149
    0.9842 	   48.0185 	   20.0000 	   18.0000 	   53.7919
    0.8621 	   48.1040 	   20.0000 	   18.0000 	   53.9629
    0.8011 	   48.1910 	   20.0000 	   18.0000 	   54.1369
    0.9079 	   48.2825 	   20.0000 	   18.0000 	   54.3199
    1.0605 	   48.3675 	   20.0000 	   18.0000 	   54.4900
    0.8774 	   48.4525 	   20.0000 	   18.0000 	   54.6600
    0.8927 	   48.5355 	   20.0000 	   18.0000 	   54.8260
    0.9079 	   48.6185 	   20.0000 	   18.0000 	   54.9920
    0.9232 	   48.7020 	   20.0000 	   18.0000 	   55.1590
    0.5722 	   48.7860 	   20.0000 	   18.0000 	   55.3270
    1.1063 	   48.8705 	   20.0000 	   18.0000 	   55.4960
    0.9232 	   48.9625 	   20.0000 	   18.0000 	   55.6800
    0.9995 	   49.0510 	   20.0000 	   18.0000 	   55.8570
    0.9079 	   49.1405 	   20.0000 	   18.0000 	   56.0360
    0.8316 	   49.2295 	   20.0000 	   18.0000 	   56.2141
    0.9537 	   49.3190 	   20.0000 	   18.0000 	   56.3931
    0.9232 	   49.4030 	   20.0000 	   18.0000 	   56.5611
    1.1063 	   49.4945 	   20.0000 	   18.0000 	   56.7441
    0.9537 	   49.5830 	   20.0000 	   18.0000 	   56.9211
    0.8774 	   49.6740 	   20.0000 	   18.0000 	   57.1031
    1.0300 	   49.7605 	   20.0000 	   18.0000 	   57.2761
    0.7248 	   49.8475 	   20.0000 	   18.0000 	   57.4501
    0.9689 	   49.9315 	   20.0000 	   18.0000 	   57.6181
    0.9232 	   50.0215 	   20.0000 	   18.0000 	   57.7981
    0.9079 	   50.1140 	   20.0000 	   18.0000 	   57.9832
    1.0300 	   50.2020 	   20.0000 	   18.0000 	   58.1592
    0.9079 	   50.2915 	   20.0000 	   18.0000 	   58.3382
    0.8469 	   50.3735 	   20.0000 	   18.0000 	   58.5022
    1.0452 	   50.4625 	   20.0000 	   18.0000 	   58.6802
    0.9995 	   50.5500 	   20.0000 	   18.0000 	   58.8552
    1.0605 	   50.6385 	   20.0000 	   18.0000 	   59.0322
    1.0452 	   50.7290 	   20.0000 	   18.0000 	   59.2132
    1.0147 	   50.8210 	   20.0000 	   18.0000 	   59.3972
    0.8621 	   50.9110 	   20.0000 	   18.0000 	   59.5772
    0.8469 	   51.0020 	   20.0000 	   18.0000 	   59.7593
    0.8164 	   51.0930 	   20.0000 	   18.0000 	   59.9413
    0.8927 	   51.1760 	   20.0000 	   19.0000 	    0.1073
    0.8927 	   51.2690 	   20.0000 	   19.0000 	    0.2933
    0.9842 	   51.3605 	   20.0000 	   19.0000 	    0.4763
    1.0605 	   51.4525 	   20.0000 	   19.0000 	    0.6603
    0.8621 	   51.5360 	   20.0000 	   19.0000 	    0.8273
    0.7553 	   51.6195 	   20.0000 	   19.0000 	    0.9943
    0.8927 	   51.7075 	   20.0000 	   19.0000 	    1.1703
    0.9232 	   51.7930 	   20.0000 	   19.0000 	    1.3413
    1.0452 	   51.8880 	   20.0000 	   19.0000 	    1.5304
    1.0147 	   51.9785 	   20.0000 	   19.0000 	    1.7124
    1.0300 	   52.0715 	   20.0000 	   19.0000 	    1.8984
    0.9842 	   52.1590 	   20.0000 	   19.0000 	    2.0734
    0.9842 	   52.2485 	   20.0000 	   19.0000 	    2.2524
    0.8927 	   52.3355 	   20.0000 	   19.0000 	    2.4264
    0.9079 	   52.4205 	   20.0000 	   19.0000 	    2.5964
    1.0452 	   52.5045 	   20.0000 	   19.0000 	    2.7644
    0.9232 	   52.5895 	   20.0000 	   19.0000 	    2.9344
    0.9232 	   52.6740 	   20.0000 	   19.0000 	    3.1034
    1.1063 	   52.7585 	   20.0000 	   19.0000 	    3.2725
    1.0910 	   52.8430 	   20.0000 	   19.0000 	    3.4415
    0.8927 	   52.9280 	   20.0000 	   19.0000 	    3.6115
    0.9537 	   53.0195 	   20.0000 	   19.0000 	    3.7945
    0.8621 	   53.1065 	   20.0000 	   19.0000 	    3.9685
    0.8774 	   53.2005 	   20.0000 	   19.0000 	    4.1565
    0.8316 	   53.2890 	   20.0000 	   19.0000 	    4.3335
    0.6790 	   53.3790 	   20.0000 	   19.0000 	    4.5135
    1.0452 	   53.4645 	   20.0000 	   19.0000 	    4.6845
    0.9689 	   53.5505 	   20.0000 	   19.0000 	    4.8566
    0.7401 	   53.6445 	   20.0000 	   19.0000 	    5.0446
    0.9842 	   53.7390 	   20.0000 	   19.0000 	    5.2336
    0.9537 	   53.8310 	   20.0000 	   19.0000 	    5.4176
    1.1521 	   53.9175 	   20.0000 	   19.0000 	    5.5906
    0.9232 	   54.0030 	   20.0000 	   19.0000 	    5.7606
    0.9079 	   54.0945 	   20.0000 	   19.0000 	    5.9436
    0.9384 	   54.1875 	   20.0000 	   19.0000 	    6.1296
    0.9537 	   54.2735 	   20.0000 	   19.0000 	    6.3016
    0.9995 	   54.3640 	   20.0000 	   19.0000 	    6.4826
    1.0605 	   54.4535 	   20.0000 	   19.0000 	    6.6617
    0.9995 	   54.5390 	   20.0000 	   19.0000 	    6.8327
    0.8774 	   54.6270 	   20.0000 	   19.0000 	    7.0087
    0.9232 	   54.7135 	   20.0000 	   19.0000 	    7.1817
    0.9995 	   54.8045 	   20.0000 	   19.0000 	    7.3637
    1.0758 	   54.8970 	   20.0000 	   19.0000 	    7.5487
    0.9842 	   54.9825 	   20.0000 	   19.0000 	    7.7197
    1.1063 	   55.0735 	   20.0000 	   19.0000 	    7.9017
    0.9079 	   55.1580 	   20.0000 	   19.0000 	    8.0707
    0.9995 	   55.2485 	   20.0000 	   19.0000 	    8.2517
    0.9537 	   55.3415 	   20.0000 	   19.0000 	    8.4378
    0.9537 	   55.4270 	   20.0000 	   19.0000 	    8.6088
    1.0147 	   55.5220 	   20.0000 	   19.0000 	    8.7988
    1.0147 	   55.6165 	   20.0000 	   19.0000 	    8.9878
    0.9842 	   55.7045 	   20.0000 	   19.0000 	    9.1638
    1.0605 	   55.7965 	   20.0000 	   19.0000 	    9.3478
    0.9537 	   55.8870 	   20.0000 	   19.0000 	    9.5288
    1.2589 	   55.9810 	   20.0000 	   19.0000 	    9.7168
    1.1215 	   56.0740 	   20.0000 	   19.0000 	    9.9028
    1.0605 	   56.1665 	   20.0000 	   19.0000 	   10.0878
    1.1978 	   56.2540 	   20.0000 	   19.0000 	   10.2629
    0.9384 	   56.3405 	   20.0000 	   19.0000 	   10.4359
    1.1368 	   56.4290 	   20.0000 	   19.0000 	   10.6129
    0.8316 	   56.5170 	   20.0000 	   19.0000 	   10.7889
    1.0758 	   56.6035 	   20.0000 	   19.0000 	   10.9619
    1.1063 	   56.6985 	   20.0000 	   19.0000 	   11.1519
    1.0910 	   56.7930 	   20.0000 	   19.0000 	   11.3409
    1.0452 	   56.8805 	   20.0000 	   19.0000 	   11.5159
    1.0910 	   56.9655 	   20.0000 	   19.0000 	   11.6859
    0.9842 	   57.0570 	   20.0000 	   19.0000 	   11.8690
    1.1368 	   57.1510 	   20.0000 	   19.0000 	   12.0570
    1.0147 	   57.2460 	   20.0000 	   19.0000 	   12.2470
    1.0452 	   57.3340 	   20.0000 	   19.0000 	   12.4230
    1.1215 	   57.4225 	   20.0000 	   19.0000 	   12.6000
    0.9842 	   57.5140 	   20.0000 	   19.0000 	   12.7830
    0.9537 	   57.6045 	   20.0000 	   19.0000 	   12.9640
    1.0605 	   57.6945 	   20.0000 	   19.0000 	   13.1440
    1.1215 	   57.7890 	   20.0000 	   19.0000 	   13.3330
    0.9995 	   57.8830 	   20.0000 	   19.0000 	   13.5210
    1.0605 	   57.9740 	   20.0000 	   19.0000 	   13.7031
    1.0910 	   58.0690 	   20.0000 	   19.0000 	   13.8931
    1.0758 	   58.1590 	   20.0000 	   19.0000 	   14.0731
    1.0758 	   58.2465 	   20.0000 	   19.0000 	   14.2481
    1.1063 	   58.3385 	   20.0000 	   19.0000 	   14.4321
    1.2741 	   58.4325 	   20.0000 	   19.0000 	   14.6201
    1.0910 	   58.5250 	   20.0000 	   19.0000 	   14.8051
    1.2589 	   58.6175 	   20.0000 	   19.0000 	   14.9901
    1.2589 	   58.7125 	   20.0000 	   19.0000 	   15.1801
    1.1978 	   58.8050 	   20.0000 	   19.0000 	   15.3652
    1.0605 	   58.9010 	   20.0000 	   19.0000 	   15.5572
    0.9537 	   58.9900 	   20.0000 	   19.0000 	   15.7352
    1.0147 	   59.0775 	   20.0000 	   19.0000 	   15.9102
    1.0147 	   59.1710 	   20.0000 	   19.0000 	   16.0972
    1.0300 	   59.2630 	   20.0000 	   19.0000 	   16.2812
    1.0910 	   59.3500 	   20.0000 	   19.0000 	   16.4552
    1.0147 	   59.4515 	   20.0000 	   19.0000 	   16.6582
    0.9995 	   59.5455 	   20.0000 	   19.0000 	   16.8462
    1.1215 	   59.6400 	   20.0000 	   19.0000 	   17.0352
    1.0910 	   59.7295 	   20.0000 	   19.0000 	   17.2143
    1.2284 	   59.8145 	   20.0000 	   19.0000 	   17.3843
    0.9995 	   59.8995 	   20.0000 	   19.0000 	   17.5543
    0.9537 	   59.9840 	   20.0000 	   19.0000 	   17.7233
    1.1215 	   60.0705 	   20.0000 	   19.0000 	   17.8963
    0.9079 	   60.1585 	   20.0000 	   19.0000 	   18.0723
    1.0147 	   60.2515 	   20.0000 	   19.0000 	   18.2583
    1.4420 	   60.3385 	   20.0000 	   19.0000 	   18.4323
    1.0910 	   60.4240 	   20.0000 	   19.0000 	   18.6033
    1.0758 	   60.5090 	   20.0000 	   19.0000 	   18.7733
    1.1063 	   60.5935 	   20.0000 	   19.0000 	   18.9424
    1.0605 	   60.6785 	   20.0000 	   19.0000 	   19.1124
    1.1521 	   60.7635 	   20.0000 	   19.0000 	   19.2824
    1.1063 	   60.8500 	   20.0000 	   19.0000 	   19.4554
    1.1063 	   60.9345 	   20.0000 	   19.0000 	   19.6244
    1.1521 	   61.0190 	   20.0000 	   19.0000 	   19.7934
    1.0758 	   61.1125 	   20.0000 	   19.0000 	   19.9804
    1.1368 	   61.2075 	   20.0000 	   19.0000 	   20.1704
    1.2436 	   61.2985 	   20.0000 	   19.0000 	   20.3524
    1.2589 	   61.3945 	   20.0000 	   19.0000 	   20.5444
    1.1978 	   61.4875 	   20.0000 	   19.0000 	   20.7305
    1.2894 	   61.5755 	   20.0000 	   19.0000 	   20.9065
    1.1978 	   61.6670 	   20.0000 	   19.0000 	   21.0895
    1.2436 	   61.7610 	   20.0000 	   19.0000 	   21.2775
    1.2284 	   61.8570 	   20.0000 	   19.0000 	   21.4695
    1.0910 	   61.9510 	   20.0000 	   19.0000 	   21.6575
    1.0452 	   62.0405 	   20.0000 	   19.0000 	   21.8365
    1.0758 	   62.1325 	   20.0000 	   19.0000 	   22.0205
    1.1368 	   62.2170 	   20.0000 	   19.0000 	   22.1895
    1.2436 	   62.3025 	   20.0000 	   19.0000 	   22.3606
    1.0758 	   62.3900 	   20.0000 	   19.0000 	   22.5356
    1.0147 	   62.4795 	   20.0000 	   19.0000 	   22.7146
    1.1368 	   62.5655 	   20.0000 	   19.0000 	   22.8866
    1.1215 	   62.6520 	   20.0000 	   19.0000 	   23.0596
    1.1521 	   62.7410 	   20.0000 	   19.0000 	   23.2366
    1.2131 	   62.8305 	   20.0000 	   19.0000 	   23.4156
    1.0910 	   62.9170 	   20.0000 	   19.0000 	   23.5886
    1.0910 	   63.0030 	   20.0000 	   19.0000 	   23.7606
    1.1063 	   63.0970 	   20.0000 	   19.0000 	   23.9486
    0.9079 	   63.1860 	   20.0000 	   19.0000 	   24.1267
    1.0605 	   63.2720 	   20.0000 	   19.0000 	   24.2987
    1.1215 	   63.3595 	   20.0000 	   19.0000 	   24.4737
    1.1521 	   63.4520 	   20.0000 	   19.0000 	   24.6587
    1.1673 	   63.5365 	   20.0000 	   19.0000 	   24.8277
    1.2436 	   63.6220 	   20.0000 	   19.0000 	   24.9987
    1.1978 	   63.7080 	   20.0000 	   19.0000 	   25.1707
    1.1368 	   63.7960 	   20.0000 	   19.0000 	   25.3467
    1.2741 	   63.8830 	   20.0000 	   19.0000 	   25.5207
    1.0758 	   63.9715 	   20.0000 	   19.0000 	   25.6977
    1.1368 	   64.0590 	   20.0000 	   19.0000 	   25.8728
    1.1215 	   64.1465 	   20.0000 	   19.0000 	   26.0478
    1.1978 	   64.2375 	   20.0000 	   19.0000 	   26.2298
    1.0910 	   64.3260 	   20.0000 	   19.0000 	   26.4068
    1.1063 	   64.4115 	   20.0000 	   19.0000 	   26.5778
    1.3199 	   64.4980 	   20.0000 	   19.0000 	   26.7508
    1.1826 	   64.5855 	   20.0000 	   19.0000 	   26.9258
    1.2436 	   64.6720 	   20.0000 	   19.0000 	   27.0988
    1.2741 	   64.7690 	   20.0000 	   19.0000 	   27.2928
    1.1978 	   64.8585 	   20.0000 	   19.0000 	   27.4718
    1.1521 	   64.9505 	   20.0000 	   19.0000 	   27.6559
    1.2589 	   64.9965 	   20.0000 	   19.0000 	   27.7479