File: instron/independence/hysterisis/bad_l15w3/b_l15w3_40_60_nonstop.txt
Thayer School of Engineering        Instron 4442 Mechanical Testing System
7/5/2018 3:25:48 AM

  Force (N)	Extension (mm)	Not Used	Not Used	Not Used	     Hour	    Minute	    Second
    0.5570 	    1.0220 	    3.0000 	   26.0000 	   26.3322
    0.3738 	    1.2890 	    3.0000 	   26.0000 	   26.5992
    0.4654 	    1.5870 	    3.0000 	   26.0000 	   26.8972
    0.4959 	    1.8320 	    3.0000 	   26.0000 	   27.1422
    0.5570 	    2.1560 	    3.0000 	   26.0000 	   27.4662
    0.6332 	    2.4280 	    3.0000 	   26.0000 	   27.7382
    0.6180 	    2.7120 	    3.0000 	   26.0000 	   28.0223
    0.6332 	    2.9520 	    3.0000 	   26.0000 	   28.2623
    0.5875 	    3.2520 	    3.0000 	   26.0000 	   28.5623
    0.6485 	    3.5020 	    3.0000 	   26.0000 	   28.8113
    0.5722 	    3.6730 	    3.0000 	   26.0000 	   28.9823
    0.5722 	    3.8440 	    3.0000 	   26.0000 	   29.1533
    0.5875 	    4.0450 	    3.0000 	   26.0000 	   29.3543
    0.6943 	    4.2410 	    3.0000 	   26.0000 	   29.5503
    0.3281 	    4.4130 	    3.0000 	   26.0000 	   29.7224
    0.6790 	    4.6060 	    3.0000 	   26.0000 	   29.9154
    0.8164 	    4.7930 	    3.0000 	   26.0000 	   30.1024
    0.7095 	    4.9940 	    3.0000 	   26.0000 	   30.3034
    0.6332 	    5.1940 	    3.0000 	   26.0000 	   30.5034
    0.6485 	    5.3770 	    3.0000 	   26.0000 	   30.6864
    0.6943 	    5.5380 	    3.0000 	   26.0000 	   30.8474
    0.6332 	    5.7170 	    3.0000 	   26.0000 	   31.0264
    0.8011 	    5.9020 	    3.0000 	   26.0000 	   31.2114
    0.7095 	    6.0900 	    3.0000 	   26.0000 	   31.3994
    0.8621 	    6.2720 	    3.0000 	   26.0000 	   31.5815
    0.8469 	    6.4350 	    3.0000 	   26.0000 	   31.7445
    0.6332 	    6.6040 	    3.0000 	   26.0000 	   31.9135
    0.7858 	    6.7930 	    3.0000 	   26.0000 	   32.1025
    0.7095 	    6.9790 	    3.0000 	   26.0000 	   32.2885
    0.7401 	    7.1730 	    3.0000 	   26.0000 	   32.4825
    0.7095 	    7.3570 	    3.0000 	   26.0000 	   32.6665
    0.8774 	    7.5310 	    3.0000 	   26.0000 	   32.8405
    0.6485 	    7.7080 	    3.0000 	   26.0000 	   33.0175
    0.6943 	    7.9020 	    3.0000 	   26.0000 	   33.2116
    0.6180 	    8.0950 	    3.0000 	   26.0000 	   33.4046
    0.6180 	    8.2860 	    3.0000 	   26.0000 	   33.5956
    0.8316 	    8.4530 	    3.0000 	   26.0000 	   33.7626
    0.8316 	    8.6180 	    3.0000 	   26.0000 	   33.9276
    0.8621 	    8.8060 	    3.0000 	   26.0000 	   34.1156
    0.6943 	    8.9870 	    3.0000 	   26.0000 	   34.2966
    0.7401 	    9.1730 	    3.0000 	   26.0000 	   34.4826
    0.8011 	    9.3620 	    3.0000 	   26.0000 	   34.6716
    0.7248 	    9.5310 	    3.0000 	   26.0000 	   34.8406
    0.7706 	    9.7110 	    3.0000 	   26.0000 	   35.0207
    0.7706 	    9.9030 	    3.0000 	   26.0000 	   35.2127
    0.8621 	   10.0960 	    3.0000 	   26.0000 	   35.4057
    0.8774 	   10.2910 	    3.0000 	   26.0000 	   35.6007
    0.5722 	   10.4690 	    3.0000 	   26.0000 	   35.7787
    0.8164 	   10.6400 	    3.0000 	   26.0000 	   35.9497
    0.9079 	   10.8380 	    3.0000 	   26.0000 	   36.1477
    0.8469 	   11.0240 	    3.0000 	   26.0000 	   36.3337
    0.7858 	   11.2220 	    3.0000 	   26.0000 	   36.5317
    0.8316 	   11.4060 	    3.0000 	   26.0000 	   36.7158
    0.8469 	   11.5790 	    3.0000 	   26.0000 	   36.8888
    0.7706 	   11.7710 	    3.0000 	   26.0000 	   37.0808
    0.9842 	   11.9600 	    3.0000 	   26.0000 	   37.2698
    0.9537 	   12.1580 	    3.0000 	   26.0000 	   37.4678
    0.8927 	   12.3590 	    3.0000 	   26.0000 	   37.6688
    0.8316 	   12.5290 	    3.0000 	   26.0000 	   37.8388
    0.9232 	   12.6980 	    3.0000 	   26.0000 	   38.0078
    0.9079 	   12.8690 	    3.0000 	   26.0000 	   38.1788
    0.8927 	   13.0480 	    3.0000 	   26.0000 	   38.3578
    0.8774 	   13.2420 	    3.0000 	   26.0000 	   38.5519
    0.9384 	   13.4300 	    3.0000 	   26.0000 	   38.7399
    0.6485 	   13.6080 	    3.0000 	   26.0000 	   38.9179
    0.9232 	   13.8060 	    3.0000 	   26.0000 	   39.1159
    0.8316 	   14.0050 	    3.0000 	   26.0000 	   39.3149
    0.9537 	   14.1990 	    3.0000 	   26.0000 	   39.5089
    1.1978 	   14.3890 	    3.0000 	   26.0000 	   39.6989
    0.8469 	   14.5620 	    3.0000 	   26.0000 	   39.8719
    1.1368 	   14.7420 	    3.0000 	   26.0000 	   40.0519
    0.9689 	   14.9420 	    3.0000 	   26.0000 	   40.2520
    1.0300 	   15.1740 	    3.0000 	   26.0000 	   40.4830
    0.9995 	   15.3690 	    3.0000 	   26.0000 	   40.6790
    1.0300 	   15.5510 	    3.0000 	   26.0000 	   40.8610
    0.9232 	   15.7470 	    3.0000 	   26.0000 	   41.0570
    1.0452 	   15.9410 	    3.0000 	   26.0000 	   41.2510
    1.0758 	   16.1410 	    3.0000 	   26.0000 	   41.4510
    1.0605 	   16.3380 	    3.0000 	   26.0000 	   41.6480
    1.0300 	   16.5120 	    3.0000 	   26.0000 	   41.8220
    1.1215 	   16.6950 	    3.0000 	   26.0000 	   42.0051
    1.1978 	   16.8940 	    3.0000 	   26.0000 	   42.2041
    1.2436 	   17.0920 	    3.0000 	   26.0000 	   42.4021
    1.1826 	   17.2850 	    3.0000 	   26.0000 	   42.5941
    1.0910 	   17.4750 	    3.0000 	   26.0000 	   42.7851
    1.1063 	   17.6570 	    3.0000 	   26.0000 	   42.9671
    1.0758 	   17.8370 	    3.0000 	   26.0000 	   43.1471
    1.0605 	   18.0250 	    3.0000 	   26.0000 	   43.3351
    1.1673 	   18.2180 	    3.0000 	   26.0000 	   43.5281
    1.0452 	   18.4100 	    3.0000 	   26.0000 	   43.7202
    1.1673 	   18.5890 	    3.0000 	   26.0000 	   43.8992
    1.1368 	   18.7710 	    3.0000 	   26.0000 	   44.0812
    1.2284 	   18.9660 	    3.0000 	   26.0000 	   44.2762
    1.1673 	   19.1620 	    3.0000 	   26.0000 	   44.4722
    1.1063 	   19.3550 	    3.0000 	   26.0000 	   44.6652
    1.2284 	   19.5320 	    3.0000 	   26.0000 	   44.8422
    1.1521 	   19.7140 	    3.0000 	   26.0000 	   45.0242
    1.1521 	   19.9080 	    3.0000 	   26.0000 	   45.2182
    1.2436 	   20.1100 	    3.0000 	   26.0000 	   45.4202
    1.3046 	   20.3060 	    3.0000 	   26.0000 	   45.6163
    1.3199 	   20.4900 	    3.0000 	   26.0000 	   45.8003
    1.1826 	   20.6720 	    3.0000 	   26.0000 	   45.9823
    1.4267 	   20.8790 	    3.0000 	   26.0000 	   46.1883
    1.3962 	   21.0850 	    3.0000 	   26.0000 	   46.3943
    1.3352 	   21.2810 	    3.0000 	   26.0000 	   46.5903
    0.9842 	   21.4620 	    3.0000 	   26.0000 	   46.7713
    1.2436 	   21.6420 	    3.0000 	   26.0000 	   46.9513
    1.2741 	   21.8440 	    3.0000 	   26.0000 	   47.1534
    1.3504 	   22.0420 	    3.0000 	   26.0000 	   47.3514
    1.3504 	   22.2380 	    3.0000 	   26.0000 	   47.5474
    1.4420 	   22.4210 	    3.0000 	   26.0000 	   47.7304
    1.4115 	   22.5980 	    3.0000 	   26.0000 	   47.9074
    1.4267 	   22.7710 	    3.0000 	   26.0000 	   48.0804
    1.3809 	   22.9630 	    3.0000 	   26.0000 	   48.2724
    1.5335 	   23.1640 	    3.0000 	   26.0000 	   48.4734
    1.3809 	   23.3660 	    3.0000 	   26.0000 	   48.6754
    1.2284 	   23.5440 	    3.0000 	   26.0000 	   48.8534
    1.4267 	   23.7190 	    3.0000 	   26.0000 	   49.0285
    1.5488 	   23.9100 	    3.0000 	   26.0000 	   49.2195
    1.6098 	   24.1160 	    3.0000 	   26.0000 	   49.4255
    1.6556 	   24.3150 	    3.0000 	   26.0000 	   49.6245
    1.4725 	   24.5040 	    3.0000 	   26.0000 	   49.8135
    1.3657 	   24.6950 	    3.0000 	   26.0000 	   50.0045
    1.6251 	   24.8960 	    3.0000 	   26.0000 	   50.2055
    1.5488 	   25.1000 	    3.0000 	   26.0000 	   50.4095
    1.5640 	   25.3000 	    3.0000 	   26.0000 	   50.6095
    1.5488 	   25.4940 	    3.0000 	   26.0000 	   50.8036
    1.5946 	   25.6800 	    3.0000 	   26.0000 	   50.9896
    1.6709 	   25.8770 	    3.0000 	   26.0000 	   51.1866
    1.6098 	   26.0710 	    3.0000 	   26.0000 	   51.3806
    1.5488 	   26.2710 	    3.0000 	   26.0000 	   51.5806
    1.6556 	   26.4570 	    3.0000 	   26.0000 	   51.7666
    1.6556 	   26.6440 	    3.0000 	   26.0000 	   51.9536
    1.5793 	   26.8420 	    3.0000 	   26.0000 	   52.1516
    1.6709 	   27.0410 	    3.0000 	   26.0000 	   52.3506
    1.5488 	   27.2470 	    3.0000 	   26.0000 	   52.5567
    1.7472 	   27.4410 	    3.0000 	   26.0000 	   52.7507
    1.7472 	   27.6240 	    3.0000 	   26.0000 	   52.9337
    1.7624 	   27.8040 	    3.0000 	   26.0000 	   53.1137
    1.9150 	   28.0090 	    3.0000 	   26.0000 	   53.3187
    1.8387 	   28.2480 	    3.0000 	   26.0000 	   53.5577
    1.8692 	   28.4440 	    3.0000 	   26.0000 	   53.7537
    1.6556 	   28.6300 	    3.0000 	   26.0000 	   53.9397
    1.5946 	   28.8230 	    3.0000 	   26.0000 	   54.1327
    1.9303 	   29.0270 	    3.0000 	   26.0000 	   54.3368
    1.8387 	   29.2330 	    3.0000 	   26.0000 	   54.5428
    1.9760 	   29.4360 	    3.0000 	   26.0000 	   54.7458
    1.8845 	   29.6250 	    3.0000 	   26.0000 	   54.9348
    2.0218 	   29.8040 	    3.0000 	   26.0000 	   55.1138
    2.0981 	   30.0060 	    3.0000 	   26.0000 	   55.3158
    2.0676 	   30.2110 	    3.0000 	   26.0000 	   55.5208
    2.0523 	   30.4210 	    3.0000 	   26.0000 	   55.7308
    2.1744 	   30.6050 	    3.0000 	   26.0000 	   55.9149
    2.0066 	   30.7840 	    3.0000 	   26.0000 	   56.0939
    2.1592 	   30.9800 	    3.0000 	   26.0000 	   56.2899
    2.0676 	   31.1850 	    3.0000 	   26.0000 	   56.4949
    2.2049 	   31.3840 	    3.0000 	   26.0000 	   56.6939
    2.1286 	   31.5690 	    3.0000 	   26.0000 	   56.8789
    2.2202 	   31.7490 	    3.0000 	   26.0000 	   57.0589
    2.0829 	   31.9570 	    3.0000 	   26.0000 	   57.2669
    2.2812 	   32.1940 	    3.0000 	   26.0000 	   57.5039
    2.3270 	   32.3980 	    3.0000 	   26.0000 	   57.7080
    2.3117 	   32.5990 	    3.0000 	   26.0000 	   57.9090
    2.2202 	   32.7930 	    3.0000 	   26.0000 	   58.1030
    2.3880 	   32.9970 	    3.0000 	   26.0000 	   58.3070
    2.3880 	   33.2010 	    3.0000 	   26.0000 	   58.5110
    2.4033 	   33.3930 	    3.0000 	   26.0000 	   58.7030
    2.3575 	   33.5860 	    3.0000 	   26.0000 	   58.8960
    2.1897 	   33.7730 	    3.0000 	   26.0000 	   59.0830
    2.5559 	   33.9820 	    3.0000 	   26.0000 	   59.2920
    2.4948 	   34.1940 	    3.0000 	   26.0000 	   59.5041
    2.4948 	   34.4030 	    3.0000 	   26.0000 	   59.7131
    2.5711 	   34.5930 	    3.0000 	   26.0000 	   59.9031
    2.5254 	   34.7810 	    3.0000 	   27.0000 	    0.0911
    2.6780 	   34.9860 	    3.0000 	   27.0000 	    0.2961
    2.5711 	   35.1960 	    3.0000 	   27.0000 	    0.5061
    2.6169 	   35.3990 	    3.0000 	   27.0000 	    0.7091
    2.6932 	   35.5940 	    3.0000 	   27.0000 	    0.9041
    2.5711 	   35.7830 	    3.0000 	   27.0000 	    1.0931
    2.7695 	   35.9840 	    3.0000 	   27.0000 	    1.2942
    2.7237 	   36.1970 	    3.0000 	   27.0000 	    1.5072
    2.3880 	   36.4060 	    3.0000 	   27.0000 	    1.7162
    2.7848 	   36.6060 	    3.0000 	   27.0000 	    1.9162
    2.7390 	   36.8000 	    3.0000 	   27.0000 	    2.1102
    2.8763 	   37.0090 	    3.0000 	   27.0000 	    2.3192
    2.7848 	   37.2160 	    3.0000 	   27.0000 	    2.5262
    2.8611 	   37.4310 	    3.0000 	   27.0000 	    2.7412
    2.7543 	   37.6320 	    3.0000 	   27.0000 	    2.9423
    2.9374 	   37.8240 	    3.0000 	   27.0000 	    3.1343
    3.0594 	   38.0520 	    3.0000 	   27.0000 	    3.3623
    3.1205 	   38.2780 	    3.0000 	   27.0000 	    3.5883
    3.1205 	   38.4960 	    3.0000 	   27.0000 	    3.8053
    3.0289 	   38.7010 	    3.0000 	   27.0000 	    4.0103
    3.1968 	   38.9010 	    3.0000 	   27.0000 	    4.2103
    3.0900 	   39.1160 	    3.0000 	   27.0000 	    4.4253
    3.2425 	   39.3210 	    3.0000 	   27.0000 	    4.6303
    3.2731 	   39.5200 	    3.0000 	   27.0000 	    4.8294
    3.1815 	   39.7260 	    3.0000 	   27.0000 	    5.0344
    3.2273 	   39.9190 	    3.0000 	   27.0000 	    5.2284
    3.3646 	   40.1630 	    3.0000 	   27.0000 	    5.4724
    3.3341 	   40.3730 	    3.0000 	   27.0000 	    5.6824
    3.0747 	   40.5820 	    3.0000 	   27.0000 	    5.8914
    3.2425 	   40.7710 	    3.0000 	   27.0000 	    6.0804
    2.6627 	   40.9740 	    3.0000 	   27.0000 	    6.2834
    2.8763 	   41.1880 	    3.0000 	   27.0000 	    6.4975
    2.7237 	   41.4040 	    3.0000 	   27.0000 	    6.7135
    2.8305 	   41.6100 	    3.0000 	   27.0000 	    6.9195
    2.5711 	   41.8010 	    3.0000 	   27.0000 	    7.1105
    2.5559 	   42.0080 	    3.0000 	   27.0000 	    7.3175
    2.3880 	   42.2140 	    3.0000 	   27.0000 	    7.5235
    2.3423 	   42.4280 	    3.0000 	   27.0000 	    7.7375
    2.3880 	   42.6350 	    3.0000 	   27.0000 	    7.9445
    2.3880 	   42.8230 	    3.0000 	   27.0000 	    8.1325
    2.2660 	   43.0200 	    3.0000 	   27.0000 	    8.3296
    2.2507 	   43.2170 	    3.0000 	   27.0000 	    8.5266
    2.1286 	   43.4340 	    3.0000 	   27.0000 	    8.7426
    1.9303 	   43.6400 	    3.0000 	   27.0000 	    8.9496
    2.0066 	   43.8350 	    3.0000 	   27.0000 	    9.1446
    2.0066 	   44.0410 	    3.0000 	   27.0000 	    9.3506
    2.1897 	   44.2510 	    3.0000 	   27.0000 	    9.5606
    1.9760 	   44.4630 	    3.0000 	   27.0000 	    9.7726
    1.5488 	   44.6630 	    3.0000 	   27.0000 	    9.9727
    1.9303 	   44.8520 	    3.0000 	   27.0000 	   10.1617
    1.9760 	   45.0630 	    3.0000 	   27.0000 	   10.3727
    1.8387 	   45.2810 	    3.0000 	   27.0000 	   10.5907
    1.8387 	   45.4990 	    3.0000 	   27.0000 	   10.8087
    1.8387 	   45.7030 	    3.0000 	   27.0000 	   11.0127
    1.7777 	   45.8930 	    3.0000 	   27.0000 	   11.2027
    1.7166 	   46.1050 	    3.0000 	   27.0000 	   11.4147
    1.7624 	   46.3250 	    3.0000 	   27.0000 	   11.6348
    1.7624 	   46.5350 	    3.0000 	   27.0000 	   11.8448
    1.7777 	   46.7410 	    3.0000 	   27.0000 	   12.0508
    1.6251 	   46.9400 	    3.0000 	   27.0000 	   12.2498
    1.8387 	   47.1630 	    3.0000 	   27.0000 	   12.4728
    1.6861 	   47.3700 	    3.0000 	   27.0000 	   12.6798
    1.5335 	   47.5630 	    3.0000 	   27.0000 	   12.8728
    1.6403 	   47.7580 	    3.0000 	   27.0000 	   13.0678
    1.5640 	   47.9600 	    3.0000 	   27.0000 	   13.2698
    1.5183 	   48.1810 	    3.0000 	   27.0000 	   13.4909
    1.5183 	   48.3990 	    3.0000 	   27.0000 	   13.7089
    1.4725 	   48.6130 	    3.0000 	   27.0000 	   13.9229
    1.3046 	   48.8110 	    3.0000 	   27.0000 	   14.1209
    1.3962 	   49.0050 	    3.0000 	   27.0000 	   14.3149
    1.4420 	   49.2050 	    3.0000 	   27.0000 	   14.5149
    1.3809 	   49.4060 	    3.0000 	   27.0000 	   14.7159
    1.4115 	   49.6180 	    3.0000 	   27.0000 	   14.9279
    1.3504 	   49.8340 	    3.0000 	   27.0000 	   15.1440
    1.4115 	   50.0330 	    3.0000 	   27.0000 	   15.3430
    1.4725 	   50.2520 	    3.0000 	   27.0000 	   15.5620
    1.1673 	   50.4700 	    3.0000 	   27.0000 	   15.7800
    1.3046 	   50.6910 	    3.0000 	   27.0000 	   16.0010
    1.2284 	   50.8970 	    3.0000 	   27.0000 	   16.2070
    1.3504 	   51.0980 	    3.0000 	   27.0000 	   16.4080
    0.9384 	   51.3150 	    3.0000 	   27.0000 	   16.6250
    1.1521 	   51.5370 	    3.0000 	   27.0000 	   16.8470
    1.2741 	   51.7490 	    3.0000 	   27.0000 	   17.0591
    1.2131 	   51.9440 	    3.0000 	   27.0000 	   17.2541
    1.3504 	   52.1660 	    3.0000 	   27.0000 	   17.4761
    1.3199 	   52.3820 	    3.0000 	   27.0000 	   17.6921
    1.2894 	   52.5840 	    3.0000 	   27.0000 	   17.8941
    1.2894 	   52.7860 	    3.0000 	   27.0000 	   18.0961
    1.1368 	   52.9970 	    3.0000 	   27.0000 	   18.3071
    1.2589 	   53.2270 	    3.0000 	   27.0000 	   18.5371
    1.1826 	   53.4490 	    3.0000 	   27.0000 	   18.7592
    1.1368 	   53.6700 	    3.0000 	   27.0000 	   18.9802
    1.1673 	   53.8690 	    3.0000 	   27.0000 	   19.1792
    1.0452 	   54.0910 	    3.0000 	   27.0000 	   19.4012
    1.0452 	   54.3110 	    3.0000 	   27.0000 	   19.6212
    0.8164 	   54.5230 	    3.0000 	   27.0000 	   19.8332
    0.8927 	   54.7430 	    3.0000 	   27.0000 	   20.0532
    1.0605 	   54.9420 	    3.0000 	   27.0000 	   20.2522
    1.1215 	   55.1610 	    3.0000 	   27.0000 	   20.4713
    1.0300 	   55.3610 	    3.0000 	   27.0000 	   20.6713
    1.1673 	   55.5730 	    3.0000 	   27.0000 	   20.8833
    1.0452 	   55.7930 	    3.0000 	   27.0000 	   21.1033
    1.0910 	   56.0010 	    3.0000 	   27.0000 	   21.3103
    1.0605 	   56.2190 	    3.0000 	   27.0000 	   21.5283
    1.0452 	   56.4200 	    3.0000 	   27.0000 	   21.7293
    1.0605 	   56.6250 	    3.0000 	   27.0000 	   21.9343
    1.0300 	   56.8350 	    3.0000 	   27.0000 	   22.1444
    1.0758 	   57.0390 	    3.0000 	   27.0000 	   22.3484
    0.9384 	   57.2700 	    3.0000 	   27.0000 	   22.5794
    0.8164 	   57.4920 	    3.0000 	   27.0000 	   22.8014
    0.9689 	   57.7150 	    3.0000 	   27.0000 	   23.0244
    0.9384 	   57.9190 	    3.0000 	   27.0000 	   23.2284
    0.8927 	   58.1330 	    3.0000 	   27.0000 	   23.4424
    0.8621 	   58.3450 	    3.0000 	   27.0000 	   23.6544
    1.0300 	   58.5700 	    3.0000 	   27.0000 	   23.8794
    0.8774 	   58.7880 	    3.0000 	   27.0000 	   24.0975
    0.9079 	   58.9940 	    3.0000 	   27.0000 	   24.3035
    0.7095 	   59.2030 	    3.0000 	   27.0000 	   24.5125
    1.0452 	   59.4160 	    3.0000 	   27.0000 	   24.7255
    1.0300 	   59.6350 	    3.0000 	   27.0000 	   24.9445
    0.8621 	   59.8450 	    3.0000 	   27.0000 	   25.1545
    0.6943 	   60.0560 	    3.0000 	   27.0000 	   25.3655
    0.7858 	   60.2890 	    3.0000 	   27.0000 	   25.5985
    0.8011 	   60.5130 	    3.0000 	   27.0000 	   25.8226
    0.7858 	   60.7220 	    3.0000 	   27.0000 	   26.0316
    0.7095 	   60.9250 	    3.0000 	   27.0000 	   26.2346
    0.7706 	   61.1490 	    3.0000 	   27.0000 	   26.4586
    0.8469 	   61.3730 	    3.0000 	   27.0000 	   26.6826
    0.7858 	   61.6010 	    3.0000 	   27.0000 	   26.9106
    1.0147 	   61.8190 	    3.0000 	   27.0000 	   27.1286
    0.7553 	   62.0250 	    3.0000 	   27.0000 	   27.3346
    0.9079 	   62.2580 	    3.0000 	   27.0000 	   27.5677
    0.8927 	   62.4860 	    3.0000 	   27.0000 	   27.7957
    0.7858 	   62.7140 	    3.0000 	   27.0000 	   28.0237
    0.8011 	   62.9290 	    3.0000 	   27.0000 	   28.2387
    0.6638 	   63.1460 	    3.0000 	   27.0000 	   28.4557
    0.7095 	   63.3730 	    3.0000 	   27.0000 	   28.6827
    0.6180 	   63.5970 	    3.0000 	   27.0000 	   28.9067
    0.7401 	   63.8180 	    3.0000 	   27.0000 	   29.1278
    0.7553 	   64.0240 	    3.0000 	   27.0000 	   29.3338
    0.7401 	   64.2560 	    3.0000 	   27.0000 	   29.5658
    0.8011 	   64.4880 	    3.0000 	   27.0000 	   29.7978
    0.7553 	   64.6990 	    3.0000 	   27.0000 	   30.0088
    0.8927 	   64.9180 	    3.0000 	   27.0000 	   30.2278
    0.7095 	   65.1410 	    3.0000 	   27.0000 	   30.4508
    0.9384 	   65.3460 	    3.0000 	   27.0000 	   30.6558
    0.3738 	   65.5710 	    3.0000 	   27.0000 	   30.8809
    0.6485 	   65.7840 	    3.0000 	   27.0000 	   31.0939
    0.7706 	   66.0000 	    3.0000 	   27.0000 	   31.3099
    0.6790 	   66.2260 	    3.0000 	   27.0000 	   31.5359
    0.6790 	   66.4640 	    3.0000 	   27.0000 	   31.7739
    0.7858 	   66.7090 	    3.0000 	   27.0000 	   32.0189
    0.8774 	   66.9540 	    3.0000 	   27.0000 	   32.2639
    0.6790 	   67.1720 	    3.0000 	   27.0000 	   32.4819
    0.5722 	   67.4150 	    3.0000 	   27.0000 	   32.7250
    0.7706 	   67.6620 	    3.0000 	   27.0000 	   32.9720
    0.6485 	   67.8970 	    3.0000 	   27.0000 	   33.2070
    0.7553 	   68.1300 	    3.0000 	   27.0000 	   33.4400
    0.6943 	   68.3510 	    3.0000 	   27.0000 	   33.6610
    0.7553 	   68.5810 	    3.0000 	   27.0000 	   33.8910
    0.5570 	   68.7990 	    3.0000 	   27.0000 	   34.1090
    0.6485 	   69.0170 	    3.0000 	   27.0000 	   34.3270
    0.6027 	   69.2440 	    3.0000 	   27.0000 	   34.5541
    0.8316 	   69.4780 	    3.0000 	   27.0000 	   34.7881
    0.7858 	   69.6980 	    3.0000 	   27.0000 	   35.0081
    0.5875 	   69.9150 	    3.0000 	   27.0000 	   35.2251
    0.7401 	   70.1300 	    3.0000 	   27.0000 	   35.4401
    0.4959 	   70.3380 	    3.0000 	   27.0000 	   35.6481
    0.6485 	   70.5550 	    3.0000 	   27.0000 	   35.8651
    0.6638 	   70.7810 	    3.0000 	   27.0000 	   36.0911
    0.6180 	   71.0150 	    3.0000 	   27.0000 	   36.3252
    0.6180 	   71.2280 	    3.0000 	   27.0000 	   36.5382
    0.5875 	   71.4590 	    3.0000 	   27.0000 	   36.7692
    0.5417 	   71.6700 	    3.0000 	   27.0000 	   36.9802
    0.6638 	   71.8970 	    3.0000 	   27.0000 	   37.2072
    0.5875 	   72.1160 	    3.0000 	   27.0000 	   37.4262
    0.5722 	   72.3380 	    3.0000 	   27.0000 	   37.6482
    0.6485 	   72.5710 	    3.0000 	   27.0000 	   37.8813
    0.6790 	   72.8110 	    3.0000 	   27.0000 	   38.1213
    0.5417 	   73.0280 	    3.0000 	   27.0000 	   38.3383
    0.5722 	   73.2470 	    3.0000 	   27.0000 	   38.5573
    0.6180 	   73.4890 	    3.0000 	   27.0000 	   38.7983
    0.2670 	   73.7290 	    3.0000 	   27.0000 	   39.0383
    0.6180 	   73.9690 	    3.0000 	   27.0000 	   39.2783
    0.4654 	   74.1910 	    3.0000 	   27.0000 	   39.5003
    0.5112 	   74.4070 	    3.0000 	   27.0000 	   39.7164
    0.2518 	   74.6480 	    3.0000 	   27.0000 	   39.9574
    0.6332 	   74.8820 	    3.0000 	   27.0000 	   40.1914
    0.6943 	   75.1110 	    3.0000 	   27.0000 	   40.4204
    0.5417 	   75.3230 	    3.0000 	   27.0000 	   40.6324
    0.6790 	   75.5420 	    3.0000 	   27.0000 	   40.8514
    0.4654 	   75.7550 	    3.0000 	   27.0000 	   41.0644
    0.6790 	   75.9700 	    3.0000 	   27.0000 	   41.2794
    0.6638 	   76.1970 	    3.0000 	   27.0000 	   41.5065
    0.6485 	   76.4240 	    3.0000 	   27.0000 	   41.7335
    0.2823 	   76.6500 	    3.0000 	   27.0000 	   41.9595
    0.5264 	   76.8840 	    3.0000 	   27.0000 	   42.1935
    0.5722 	   77.1060 	    3.0000 	   27.0000 	   42.4155
    0.3891 	   77.3330 	    3.0000 	   27.0000 	   42.6425
    0.4959 	   77.5740 	    3.0000 	   27.0000 	   42.8835
    0.4959 	   77.8210 	    3.0000 	   27.0000 	   43.1306
    0.8316 	   78.0570 	    3.0000 	   27.0000 	   43.3666
    0.6027 	   78.2840 	    3.0000 	   27.0000 	   43.5936
    0.4807 	   78.5150 	    3.0000 	   27.0000 	   43.8246
    0.5570 	   78.7490 	    3.0000 	   27.0000 	   44.0586
    0.6180 	   78.9730 	    3.0000 	   27.0000 	   44.2826
    0.5417 	   79.1960 	    3.0000 	   27.0000 	   44.5056
    0.5112 	   79.4160 	    3.0000 	   27.0000 	   44.7256
    0.5722 	   79.6580 	    3.0000 	   27.0000 	   44.9677
    0.4959 	   79.8920 	    3.0000 	   27.0000 	   45.2017
    0.3281 	   80.1310 	    3.0000 	   27.0000 	   45.4407
    0.6943 	   80.3570 	    3.0000 	   27.0000 	   45.6667
    0.6180 	   80.6010 	    3.0000 	   27.0000 	   45.9107
    0.4349 	   80.8280 	    3.0000 	   27.0000 	   46.1377
    0.3738 	   81.0530 	    3.0000 	   27.0000 	   46.3627
    0.4501 	   81.2720 	    3.0000 	   27.0000 	   46.5817
    0.6790 	   81.5190 	    3.0000 	   27.0000 	   46.8288
    0.3738 	   81.7610 	    3.0000 	   27.0000 	   47.0708
    0.5264 	   82.0030 	    3.0000 	   27.0000 	   47.3128
    0.5417 	   82.2350 	    3.0000 	   27.0000 	   47.5448
    0.5722 	   82.4690 	    3.0000 	   27.0000 	   47.7788
    0.4959 	   82.7080 	    3.0000 	   27.0000 	   48.0178
    0.6027 	   82.9500 	    3.0000 	   27.0000 	   48.2598
    0.5722 	   83.1830 	    3.0000 	   27.0000 	   48.4929
    0.6027 	   83.4040 	    3.0000 	   27.0000 	   48.7139
    0.5264 	   83.6340 	    3.0000 	   27.0000 	   48.9439
    0.4044 	   83.8560 	    3.0000 	   27.0000 	   49.1659
    0.5264 	   84.0870 	    3.0000 	   27.0000 	   49.3969
    0.4501 	   84.3100 	    3.0000 	   27.0000 	   49.6199
    0.6485 	   84.5320 	    3.0000 	   27.0000 	   49.8419
    0.5722 	   84.7630 	    3.0000 	   27.0000 	   50.0729
    0.6485 	   84.9900 	    3.0000 	   27.0000 	   50.3000
    0.6790 	   85.2140 	    3.0000 	   27.0000 	   50.5240
    0.6790 	   85.4390 	    3.0000 	   27.0000 	   50.7490
    0.4349 	   85.6880 	    3.0000 	   27.0000 	   50.9980
    0.5112 	   85.9230 	    3.0000 	   27.0000 	   51.2330
    0.4959 	   86.1540 	    3.0000 	   27.0000 	   51.4640
    0.6485 	   86.3760 	    3.0000 	   27.0000 	   51.6860
    0.6332 	   86.6200 	    3.0000 	   27.0000 	   51.9301
    0.6027 	   86.8730 	    3.0000 	   27.0000 	   52.1831
    0.6485 	   87.1140 	    3.0000 	   27.0000 	   52.4241
    0.6790 	   87.3420 	    3.0000 	   27.0000 	   52.6521
    0.6638 	   87.5830 	    3.0000 	   27.0000 	   52.8931
    0.6485 	   87.8120 	    3.0000 	   27.0000 	   53.1221
    0.7248 	   88.0400 	    3.0000 	   27.0000 	   53.3501
    0.6180 	   88.2770 	    3.0000 	   27.0000 	   53.5872
    0.7706 	   88.5030 	    3.0000 	   27.0000 	   53.8132
    0.6180 	   88.7420 	    3.0000 	   27.0000 	   54.0522
    0.7248 	   88.9910 	    3.0000 	   27.0000 	   54.3012
    0.8316 	   89.2320 	    3.0000 	   27.0000 	   54.5422
    0.7706 	   89.4580 	    3.0000 	   27.0000 	   54.7682
    0.7095 	   89.7050 	    3.0000 	   27.0000 	   55.0152
    0.6485 	   89.9580 	    3.0000 	   27.0000 	   55.2682
    0.8164 	   90.1970 	    3.0000 	   27.0000 	   55.5073
    0.7095 	   90.4280 	    3.0000 	   27.0000 	   55.7383
    0.7095 	   90.6720 	    3.0000 	   27.0000 	   55.9823
    0.8774 	   90.9280 	    3.0000 	   27.0000 	   56.2373
    0.8011 	   91.1670 	    3.0000 	   27.0000 	   56.4763
    0.8621 	   91.3960 	    3.0000 	   27.0000 	   56.7053
    0.7553 	   91.6340 	    3.0000 	   27.0000 	   56.9433
    0.7706 	   91.8630 	    3.0000 	   27.0000 	   57.1724
    0.8774 	   92.1030 	    3.0000 	   27.0000 	   57.4124
    0.7706 	   92.3350 	    3.0000 	   27.0000 	   57.6444
    0.7401 	   92.5670 	    3.0000 	   27.0000 	   57.8764
    0.8927 	   92.8160 	    3.0000 	   27.0000 	   58.1254
    0.8774 	   93.0580 	    3.0000 	   27.0000 	   58.3674
    0.8164 	   93.2950 	    3.0000 	   27.0000 	   58.6044
    0.9995 	   93.5230 	    3.0000 	   27.0000 	   58.8325
    0.6790 	   93.7640 	    3.0000 	   27.0000 	   59.0735
    0.8164 	   94.0240 	    3.0000 	   27.0000 	   59.3335
    0.7553 	   94.2790 	    3.0000 	   27.0000 	   59.5885
    0.7248 	   94.5110 	    3.0000 	   27.0000 	   59.8205
    0.8011 	   94.7540 	    3.0000 	   28.0000 	    0.0635
    0.9232 	   94.9940 	    3.0000 	   28.0000 	    0.3035
    0.8469 	   95.2240 	    3.0000 	   28.0000 	    0.5335
    0.8164 	   95.4570 	    3.0000 	   28.0000 	    0.7666
    0.9537 	   95.6880 	    3.0000 	   28.0000 	    0.9976
    1.0147 	   95.9170 	    3.0000 	   28.0000 	    1.2266
    0.9079 	   96.1550 	    3.0000 	   28.0000 	    1.4646
    0.9384 	   96.3890 	    3.0000 	   28.0000 	    1.6986
    0.8469 	   96.6220 	    3.0000 	   28.0000 	    1.9316
    0.9689 	   96.8700 	    3.0000 	   28.0000 	    2.1796
    0.9842 	   97.1220 	    3.0000 	   28.0000 	    2.4317
    1.0910 	   97.3640 	    3.0000 	   28.0000 	    2.6737
    1.0300 	   97.6050 	    3.0000 	   28.0000 	    2.9147
    1.0605 	   97.8580 	    3.0000 	   28.0000 	    3.1677
    1.0605 	   98.1110 	    3.0000 	   28.0000 	    3.4197
    1.1063 	   98.3560 	    3.0000 	   28.0000 	    3.6657
    1.0605 	   98.5880 	    3.0000 	   28.0000 	    3.8977
    1.1215 	   98.8350 	    3.0000 	   28.0000 	    4.1448
    1.0300 	   99.0890 	    3.0000 	   28.0000 	    4.3988
    1.0758 	   99.3350 	    3.0000 	   28.0000 	    4.6448
    1.0300 	   99.5740 	    3.0000 	   28.0000 	    4.8838
    1.0452 	   99.8270 	    3.0000 	   28.0000 	    5.1368
    1.0605 	  100.0800 	    3.0000 	   28.0000 	    5.3898
    1.2131 	  100.3340 	    3.0000 	   28.0000 	    5.6438
    0.8927 	  100.5690 	    3.0000 	   28.0000 	    5.8789
    1.1368 	  100.8000 	    3.0000 	   28.0000 	    6.1099
    1.2284 	  101.0340 	    3.0000 	   28.0000 	    6.3439
    1.2131 	  101.2720 	    3.0000 	   28.0000 	    6.5819
    1.3504 	  101.5110 	    3.0000 	   28.0000 	    6.8209
    1.0758 	  101.7690 	    3.0000 	   28.0000 	    7.0789
    1.1673 	  102.0090 	    3.0000 	   28.0000 	    7.3189
    1.0300 	  102.2430 	    3.0000 	   28.0000 	    7.5529
    1.1826 	  102.4800 	    3.0000 	   28.0000 	    7.7900
    1.1978 	  102.7310 	    3.0000 	   28.0000 	    8.0410
    1.2131 	  102.9660 	    3.0000 	   28.0000 	    8.2760
    1.2741 	  103.2030 	    3.0000 	   28.0000 	    8.5130
    1.2436 	  103.4430 	    3.0000 	   28.0000 	    8.7530
    1.3046 	  103.6900 	    3.0000 	   28.0000 	    9.0000
    1.3046 	  103.9400 	    3.0000 	   28.0000 	    9.2500
    1.2894 	  104.1750 	    3.0000 	   28.0000 	    9.4851
    1.1521 	  104.4190 	    3.0000 	   28.0000 	    9.7291
    1.4420 	  104.6520 	    3.0000 	   28.0000 	    9.9621
    1.2131 	  104.8900 	    3.0000 	   28.0000 	   10.2001
    1.4878 	  105.1320 	    3.0000 	   28.0000 	   10.4421
    1.3046 	  105.3740 	    3.0000 	   28.0000 	   10.6841
    1.3504 	  105.6170 	    3.0000 	   28.0000 	   10.9271
    1.5335 	  105.8820 	    3.0000 	   28.0000 	   11.1922
    1.4420 	  106.1240 	    3.0000 	   28.0000 	   11.4342
    1.4572 	  106.3660 	    3.0000 	   28.0000 	   11.6762
    1.6251 	  106.6110 	    3.0000 	   28.0000 	   11.9212
    1.5335 	  106.8740 	    3.0000 	   28.0000 	   12.1842
    1.5640 	  107.1260 	    3.0000 	   28.0000 	   12.4362
    1.3809 	  107.3720 	    3.0000 	   28.0000 	   12.6822
    1.5793 	  107.6120 	    3.0000 	   28.0000 	   12.9223
    1.6251 	  107.8750 	    3.0000 	   28.0000 	   13.1853
    1.3046 	  108.1380 	    3.0000 	   28.0000 	   13.4483
    1.6098 	  108.4030 	    3.0000 	   28.0000 	   13.7123
    1.7166 	  108.6510 	    3.0000 	   28.0000 	   13.9603
    1.7472 	  108.8940 	    3.0000 	   28.0000 	   14.2033
    1.7472 	  109.1330 	    3.0000 	   28.0000 	   14.4423
    1.7319 	  109.3830 	    3.0000 	   28.0000 	   14.6924
    1.5793 	  109.6230 	    3.0000 	   28.0000 	   14.9324
    1.7777 	  109.8780 	    3.0000 	   28.0000 	   15.1874
    1.9455 	  110.1280 	    3.0000 	   28.0000 	   15.4374
    1.8997 	  110.3780 	    3.0000 	   28.0000 	   15.6874
    1.7929 	  110.6280 	    3.0000 	   28.0000 	   15.9374
    1.9150 	  110.8900 	    3.0000 	   28.0000 	   16.1994
    1.8387 	  111.1550 	    3.0000 	   28.0000 	   16.4645
    2.1134 	  111.4170 	    3.0000 	   28.0000 	   16.7265
    1.8692 	  111.6590 	    3.0000 	   28.0000 	   16.9685
    1.8997 	  111.9280 	    3.0000 	   28.0000 	   17.2375
    1.8692 	  112.1800 	    3.0000 	   28.0000 	   17.4895
    1.9760 	  112.4310 	    3.0000 	   28.0000 	   17.7405
    2.0218 	  112.6770 	    3.0000 	   28.0000 	   17.9865
    2.1897 	  112.9290 	    3.0000 	   28.0000 	   18.2386
    2.0066 	  113.1710 	    3.0000 	   28.0000 	   18.4806
    2.0981 	  113.4160 	    3.0000 	   28.0000 	   18.7256
    2.2202 	  113.6610 	    3.0000 	   28.0000 	   18.9706
    2.2049 	  113.9260 	    3.0000 	   28.0000 	   19.2356
    1.8845 	  114.1930 	    3.0000 	   28.0000 	   19.5026
    2.1744 	  114.4500 	    3.0000 	   28.0000 	   19.7596
    2.2812 	  114.6920 	    3.0000 	   28.0000 	   20.0017
    2.4491 	  114.9590 	    3.0000 	   28.0000 	   20.2687
    2.3423 	  115.2360 	    3.0000 	   28.0000 	   20.5457
    2.3880 	  115.4870 	    3.0000 	   28.0000 	   20.7967
    2.3270 	  115.7290 	    3.0000 	   28.0000 	   21.0387
    2.5711 	  115.9800 	    3.0000 	   28.0000 	   21.2897
    2.4491 	  116.2360 	    3.0000 	   28.0000 	   21.5457
    2.3270 	  116.4930 	    3.0000 	   28.0000 	   21.8028
    2.5559 	  116.7430 	    3.0000 	   28.0000 	   22.0528
    2.6322 	  116.9850 	    3.0000 	   28.0000 	   22.2948
    2.5864 	  117.2340 	    3.0000 	   28.0000 	   22.5438
    2.6932 	  117.4860 	    3.0000 	   28.0000 	   22.7958
    2.5864 	  117.7330 	    3.0000 	   28.0000 	   23.0428
    2.7390 	  118.0060 	    3.0000 	   28.0000 	   23.3158
    2.6627 	  118.2600 	    3.0000 	   28.0000 	   23.5699
    2.6169 	  118.5130 	    3.0000 	   28.0000 	   23.8229
    2.7695 	  118.7600 	    3.0000 	   28.0000 	   24.0699
    2.8000 	  119.0250 	    3.0000 	   28.0000 	   24.3349
    3.0137 	  119.2930 	    3.0000 	   28.0000 	   24.6029
    2.8763 	  119.5560 	    3.0000 	   28.0000 	   24.8659
    2.8763 	  119.8050 	    3.0000 	   28.0000 	   25.1150
    3.1815 	  120.0520 	    3.0000 	   28.0000 	   25.3620
    3.0594 	  120.3050 	    3.0000 	   28.0000 	   25.6150
    3.0747 	  120.5600 	    3.0000 	   28.0000 	   25.8700
    3.0747 	  120.8220 	    3.0000 	   28.0000 	   26.1320
    3.0442 	  121.0940 	    3.0000 	   28.0000 	   26.4040
    3.2273 	  121.3660 	    3.0000 	   28.0000 	   26.6760
    3.2731 	  121.6200 	    3.0000 	   28.0000 	   26.9301
    3.3341 	  121.8740 	    3.0000 	   28.0000 	   27.1841
    3.1205 	  122.1390 	    3.0000 	   28.0000 	   27.4491
    2.8153 	  122.4100 	    3.0000 	   28.0000 	   27.7201
    2.5864 	  122.6680 	    3.0000 	   28.0000 	   27.9781
    2.5254 	  122.9200 	    3.0000 	   28.0000 	   28.2301
    2.5406 	  123.1870 	    3.0000 	   28.0000 	   28.4971
    2.4796 	  123.4560 	    3.0000 	   28.0000 	   28.7662
    2.3117 	  123.7090 	    3.0000 	   28.0000 	   29.0192
    2.1744 	  123.9720 	    3.0000 	   28.0000 	   29.2822
    2.2507 	  124.2240 	    3.0000 	   28.0000 	   29.5342
    2.2202 	  124.4800 	    3.0000 	   28.0000 	   29.7902
    2.2354 	  124.7350 	    3.0000 	   28.0000 	   30.0452
    2.1439 	  125.0030 	    3.0000 	   28.0000 	   30.3132
    2.0066 	  125.2570 	    3.0000 	   28.0000 	   30.5673
    2.0066 	  125.5130 	    3.0000 	   28.0000 	   30.8233
    1.9608 	  125.7640 	    3.0000 	   28.0000 	   31.0733
    1.8387 	  126.0160 	    3.0000 	   28.0000 	   31.3253
    1.9913 	  126.2810 	    3.0000 	   28.0000 	   31.5903
    1.8692 	  126.5370 	    3.0000 	   28.0000 	   31.8463
    1.6251 	  126.7940 	    3.0000 	   28.0000 	   32.1034
    1.7624 	  127.0630 	    3.0000 	   28.0000 	   32.3724
    1.7014 	  127.3350 	    3.0000 	   28.0000 	   32.6444
    1.6251 	  127.5900 	    3.0000 	   28.0000 	   32.8994
    1.6251 	  127.8400 	    3.0000 	   28.0000 	   33.1494
    1.6556 	  128.1020 	    3.0000 	   28.0000 	   33.4114
    1.6556 	  128.3540 	    3.0000 	   28.0000 	   33.6634
    1.5640 	  128.6120 	    3.0000 	   28.0000 	   33.9215
    1.6861 	  128.8740 	    3.0000 	   28.0000 	   34.1835
    1.4878 	  129.1540 	    3.0000 	   28.0000 	   34.4635
    1.7166 	  129.4260 	    3.0000 	   28.0000 	   34.7355
    1.5030 	  129.6880 	    3.0000 	   28.0000 	   34.9975
    1.3962 	  129.9390 	    3.0000 	   28.0000 	   35.2485
    1.3962 	  130.2050 	    3.0000 	   28.0000 	   35.5145
    1.4115 	  130.4630 	    3.0000 	   28.0000 	   35.7726
    1.3657 	  130.7170 	    3.0000 	   28.0000 	   36.0266
    1.3962 	  131.0430 	    3.0000 	   28.0000 	   36.3526
    1.3504 	  131.3020 	    3.0000 	   28.0000 	   36.6116
    1.0452 	  131.5680 	    3.0000 	   28.0000 	   36.8776
    1.3046 	  131.8260 	    3.0000 	   28.0000 	   37.1356
    1.2284 	  132.0870 	    3.0000 	   28.0000 	   37.3967
    1.2894 	  132.3410 	    3.0000 	   28.0000 	   37.6507
    1.2131 	  132.5980 	    3.0000 	   28.0000 	   37.9077
    1.1978 	  132.8470 	    3.0000 	   28.0000 	   38.1567
    1.2284 	  133.1190 	    3.0000 	   28.0000 	   38.4287
    1.0910 	  133.4030 	    3.0000 	   28.0000 	   38.7127
    1.1215 	  133.6710 	    3.0000 	   28.0000 	   38.9807
    1.3504 	  133.9320 	    3.0000 	   28.0000 	   39.2418
    1.0910 	  134.1860 	    3.0000 	   28.0000 	   39.4958
    1.1521 	  134.4550 	    3.0000 	   28.0000 	   39.7648
    0.8621 	  134.7140 	    3.0000 	   28.0000 	   40.0238
    0.9384 	  134.9690 	    3.0000 	   28.0000 	   40.2788
    1.0605 	  135.2500 	    3.0000 	   28.0000 	   40.5598
    0.9384 	  135.5170 	    3.0000 	   28.0000 	   40.8269
    1.0452 	  135.7800 	    3.0000 	   28.0000 	   41.0899
    0.7095 	  136.0340 	    3.0000 	   28.0000 	   41.3439
    0.8011 	  136.3030 	    3.0000 	   28.0000 	   41.6129
    1.0452 	  136.5670 	    3.0000 	   28.0000 	   41.8769
    0.9384 	  136.8230 	    3.0000 	   28.0000 	   42.1329
    1.0300 	  137.1000 	    3.0000 	   28.0000 	   42.4099
    0.8774 	  137.3590 	    3.0000 	   28.0000 	   42.6690
    1.0758 	  137.6270 	    3.0000 	   28.0000 	   42.9370
    1.0605 	  137.8870 	    3.0000 	   28.0000 	   43.1970
    1.1215 	  138.1660 	    3.0000 	   28.0000 	   43.4760
    0.9079 	  138.4520 	    3.0000 	   28.0000 	   43.7620
    0.9689 	  138.7240 	    3.0000 	   28.0000 	   44.0340
    0.9079 	  139.0010 	    3.0000 	   28.0000 	   44.3111
    0.9232 	  139.2840 	    3.0000 	   28.0000 	   44.5941
    1.0300 	  139.5630 	    3.0000 	   28.0000 	   44.8731
    0.8621 	  139.8250 	    3.0000 	   28.0000 	   45.1351
    0.9842 	  140.1050 	    3.0000 	   28.0000 	   45.4151
    0.7858 	  140.3870 	    3.0000 	   28.0000 	   45.6971
    0.7553 	  140.6610 	    3.0000 	   28.0000 	   45.9711
    0.8164 	  140.9290 	    3.0000 	   28.0000 	   46.2392
    1.0147 	  141.2020 	    3.0000 	   28.0000 	   46.5122
    0.9079 	  141.4690 	    3.0000 	   28.0000 	   46.7792
    0.9079 	  141.7370 	    3.0000 	   28.0000 	   47.0472
    0.4959 	  142.0060 	    3.0000 	   28.0000 	   47.3162
    0.8316 	  142.2780 	    3.0000 	   28.0000 	   47.5882
    0.7553 	  142.5440 	    3.0000 	   28.0000 	   47.8543
    0.7858 	  142.8230 	    3.0000 	   28.0000 	   48.1333
    0.7095 	  143.1090 	    3.0000 	   28.0000 	   48.4193
    0.6332 	  143.3770 	    3.0000 	   28.0000 	   48.6863
    0.7553 	  143.6410 	    3.0000 	   28.0000 	   48.9503
    0.7553 	  143.9050 	    3.0000 	   28.0000 	   49.2143
    0.8774 	  144.1850 	    3.0000 	   28.0000 	   49.4943
    0.8316 	  144.4480 	    3.0000 	   28.0000 	   49.7574
    0.7095 	  144.7130 	    3.0000 	   28.0000 	   50.0224
    0.6943 	  144.9850 	    3.0000 	   28.0000 	   50.2944
    0.8621 	  145.2700 	    3.0000 	   28.0000 	   50.5794
    0.8927 	  145.5350 	    3.0000 	   28.0000 	   50.8444
    0.8316 	  145.7980 	    3.0000 	   28.0000 	   51.1074
    0.8774 	  146.0850 	    3.0000 	   28.0000 	   51.3945
    0.6943 	  146.3690 	    3.0000 	   28.0000 	   51.6785
    0.7706 	  146.6350 	    3.0000 	   28.0000 	   51.9445
    0.9079 	  146.9050 	    3.0000 	   28.0000 	   52.2145
    0.5722 	  147.1840 	    3.0000 	   28.0000 	   52.4935
    0.6180 	  147.4600 	    3.0000 	   28.0000 	   52.7695
    0.6943 	  147.7290 	    3.0000 	   28.0000 	   53.0386
    0.6027 	  148.0030 	    3.0000 	   28.0000 	   53.3126
    0.6485 	  148.2950 	    3.0000 	   28.0000 	   53.6046
    0.3738 	  148.5850 	    3.0000 	   28.0000 	   53.8946
    0.5875 	  148.8520 	    3.0000 	   28.0000 	   54.1616
    0.6790 	  149.1240 	    3.0000 	   28.0000 	   54.4336
    0.5570 	  149.3950 	    3.0000 	   28.0000 	   54.7046
    0.6638 	  149.6660 	    3.0000 	   28.0000 	   54.9757
    0.4959 	  149.9350 	    3.0000 	   28.0000 	   55.2447
    0.6790 	  150.2110 	    3.0000 	   28.0000 	   55.5207
    0.6332 	  150.4780 	    3.0000 	   28.0000 	   55.7877
    0.5417 	  150.7550 	    3.0000 	   28.0000 	   56.0647
    0.5417 	  151.0260 	    3.0000 	   28.0000 	   56.3357
    0.5112 	  151.3200 	    3.0000 	   28.0000 	   56.6298
    0.6180 	  151.6030 	    3.0000 	   28.0000 	   56.9128
    0.6943 	  151.8700 	    3.0000 	   28.0000 	   57.1798
    0.6943 	  152.1430 	    3.0000 	   28.0000 	   57.4528
    0.5112 	  152.4230 	    3.0000 	   28.0000 	   57.7328
    0.6180 	  152.6940 	    3.0000 	   28.0000 	   58.0038
    0.3586 	  152.9700 	    3.0000 	   28.0000 	   58.2799
    0.6180 	  153.2630 	    3.0000 	   28.0000 	   58.5729
    0.5722 	  153.5470 	    3.0000 	   28.0000 	   58.8569
    0.4349 	  153.8130 	    3.0000 	   28.0000 	   59.1229
    0.6332 	  154.0820 	    3.0000 	   28.0000 	   59.3919
    0.5570 	  154.3600 	    3.0000 	   28.0000 	   59.6699
    0.6027 	  154.6310 	    3.0000 	   28.0000 	   59.9409
    0.5112 	  154.8980 	    3.0000 	   29.0000 	    0.2080
    0.6332 	  155.1850 	    3.0000 	   29.0000 	    0.4950
    0.5875 	  155.4720 	    3.0000 	   29.0000 	    0.7820
    0.6027 	  155.7520 	    3.0000 	   29.0000 	    1.0620
    0.4349 	  156.0290 	    3.0000 	   29.0000 	    1.3390
    0.6180 	  156.3140 	    3.0000 	   29.0000 	    1.6240
    0.4807 	  156.5990 	    3.0000 	   29.0000 	    1.9091
    0.5264 	  156.8810 	    3.0000 	   29.0000 	    2.1911
    0.5570 	  157.1610 	    3.0000 	   29.0000 	    2.4711
    0.5722 	  157.4350 	    3.0000 	   29.0000 	    2.7451
    0.6332 	  157.7260 	    3.0000 	   29.0000 	    3.0361
    0.5112 	  158.0000 	    3.0000 	   29.0000 	    3.3101
    0.5417 	  158.2760 	    3.0000 	   29.0000 	    3.5862
    0.6943 	  158.5480 	    3.0000 	   29.0000 	    3.8582
    0.5417 	  158.8240 	    3.0000 	   29.0000 	    4.1342
    0.4807 	  159.0990 	    3.0000 	   29.0000 	    4.4092
    0.5875 	  159.3800 	    3.0000 	   29.0000 	    4.6902
    0.6638 	  159.6740 	    3.0000 	   29.0000 	    4.9842
    0.3738 	  159.9480 	    3.0000 	   29.0000 	    5.2582
    0.5417 	  160.2340 	    3.0000 	   29.0000 	    5.5443
    0.3433 	  160.5160 	    3.0000 	   29.0000 	    5.8263
    0.3891 	  160.7960 	    3.0000 	   29.0000 	    6.1053
    0.5264 	  161.0680 	    3.0000 	   29.0000 	    6.3773
    0.5722 	  161.3700 	    3.0000 	   29.0000 	    6.6793
    0.4807 	  161.6510 	    3.0000 	   29.0000 	    6.9603
    0.5875 	  161.9240 	    3.0000 	   29.0000 	    7.2334
    0.4807 	  162.2030 	    3.0000 	   29.0000 	    7.5124
    0.5264 	  162.4870 	    3.0000 	   29.0000 	    7.7964
    0.4349 	  162.7760 	    3.0000 	   29.0000 	    8.0854
    0.4349 	  163.0510 	    3.0000 	   29.0000 	    8.3604
    0.4349 	  163.2410 	    3.0000 	   29.0000 	    8.5504