File: instron/independence/hysterisis/bad_l15w3/bad_l15w3_40_30_nonstop.txt
Thayer School of Engineering        Instron 4442 Mechanical Testing System
7/4/2018 10:36:11 PM

  Force (N)	Extension (mm)	Not Used	Not Used	Not Used	     Hour	    Minute	    Second
    0.2823 	    0.5115 	   22.0000 	   36.0000 	   46.1531
    0.4654 	    0.6390 	   22.0000 	   36.0000 	   46.4081
    0.2670 	    0.7650 	   22.0000 	   36.0000 	   46.6601
    0.3433 	    0.8970 	   22.0000 	   36.0000 	   46.9241
    0.3891 	    1.0180 	   22.0000 	   36.0000 	   47.1661
    0.4807 	    1.1565 	   22.0000 	   36.0000 	   47.4431
    0.2518 	    1.2915 	   22.0000 	   36.0000 	   47.7132
    0.4044 	    1.4080 	   22.0000 	   36.0000 	   47.9462
    0.4501 	    1.5320 	   22.0000 	   36.0000 	   48.1942
    0.3586 	    1.6405 	   22.0000 	   36.0000 	   48.4112
    0.2365 	    1.7165 	   22.0000 	   36.0000 	   48.5632
    0.3128 	    1.8105 	   22.0000 	   36.0000 	   48.7512
    0.3128 	    1.8900 	   22.0000 	   36.0000 	   48.9102
    0.4044 	    1.9705 	   22.0000 	   36.0000 	   49.0712
    0.2823 	    2.0505 	   22.0000 	   36.0000 	   49.2312
    0.3738 	    2.1290 	   22.0000 	   36.0000 	   49.3883
    0.3281 	    2.2115 	   22.0000 	   36.0000 	   49.5533
    0.2976 	    2.2950 	   22.0000 	   36.0000 	   49.7203
    0.4044 	    2.3750 	   22.0000 	   36.0000 	   49.8803
    0.2670 	    2.4680 	   22.0000 	   36.0000 	   50.0663
    0.3891 	    2.5475 	   22.0000 	   36.0000 	   50.2253
    0.3281 	    2.6285 	   22.0000 	   36.0000 	   50.3873
    0.3128 	    2.7270 	   22.0000 	   36.0000 	   50.5843
    0.5112 	    2.8125 	   22.0000 	   36.0000 	   50.7553
    0.5264 	    2.8905 	   22.0000 	   36.0000 	   50.9113
    0.3586 	    2.9685 	   22.0000 	   36.0000 	   51.0674
    0.2365 	    3.0490 	   22.0000 	   36.0000 	   51.2284
    0.4196 	    3.1280 	   22.0000 	   36.0000 	   51.3864
    0.3586 	    3.2090 	   22.0000 	   36.0000 	   51.5484
    0.2976 	    3.2875 	   22.0000 	   36.0000 	   51.7054
    0.3433 	    3.3640 	   22.0000 	   36.0000 	   51.8584
    0.3586 	    3.4450 	   22.0000 	   36.0000 	   52.0194
    0.2670 	    3.5230 	   22.0000 	   36.0000 	   52.1754
    0.3281 	    3.6030 	   22.0000 	   36.0000 	   52.3354
    0.3433 	    3.6800 	   22.0000 	   36.0000 	   52.4894
    0.2518 	    3.7645 	   22.0000 	   36.0000 	   52.6584
    0.4959 	    3.8445 	   22.0000 	   36.0000 	   52.8185
    0.4044 	    3.9205 	   22.0000 	   36.0000 	   52.9705
    0.2518 	    3.9985 	   22.0000 	   36.0000 	   53.1265
    0.4044 	    4.0770 	   22.0000 	   36.0000 	   53.2835
    0.4349 	    4.1560 	   22.0000 	   36.0000 	   53.4415
    0.3281 	    4.2355 	   22.0000 	   36.0000 	   53.6005
    0.3586 	    4.3130 	   22.0000 	   36.0000 	   53.7555
    0.2976 	    4.3915 	   22.0000 	   36.0000 	   53.9125
    0.3433 	    4.4705 	   22.0000 	   36.0000 	   54.0705
    0.2060 	    4.5485 	   22.0000 	   36.0000 	   54.2265
    0.2060 	    4.6265 	   22.0000 	   36.0000 	   54.3825
    0.3738 	    4.7050 	   22.0000 	   36.0000 	   54.5396
    0.3433 	    4.7855 	   22.0000 	   36.0000 	   54.7006
    0.3738 	    4.8655 	   22.0000 	   36.0000 	   54.8606
    0.3738 	    4.9465 	   22.0000 	   36.0000 	   55.0226
    0.3586 	    5.0245 	   22.0000 	   36.0000 	   55.1786
    0.3738 	    5.1035 	   22.0000 	   36.0000 	   55.3366
    0.3891 	    5.1830 	   22.0000 	   36.0000 	   55.4956
    0.4654 	    5.2625 	   22.0000 	   36.0000 	   55.6546
    0.5875 	    5.3570 	   22.0000 	   36.0000 	   55.8436
    0.5570 	    5.4385 	   22.0000 	   36.0000 	   56.0066
    0.0839 	    5.5185 	   22.0000 	   36.0000 	   56.1666
    0.4349 	    5.5985 	   22.0000 	   36.0000 	   56.3257
    0.3281 	    5.6795 	   22.0000 	   36.0000 	   56.4887
    0.5875 	    5.7595 	   22.0000 	   36.0000 	   56.6487
    0.6790 	    5.8400 	   22.0000 	   36.0000 	   56.8097
    0.3891 	    5.9180 	   22.0000 	   36.0000 	   56.9657
    0.5112 	    5.9950 	   22.0000 	   36.0000 	   57.1197
    0.3586 	    6.0770 	   22.0000 	   36.0000 	   57.2837
    0.4501 	    6.1585 	   22.0000 	   36.0000 	   57.4467
    0.3891 	    6.2400 	   22.0000 	   36.0000 	   57.6097
    0.2976 	    6.3235 	   22.0000 	   36.0000 	   57.7767
    0.4959 	    6.4045 	   22.0000 	   36.0000 	   57.9387
    0.2976 	    6.4850 	   22.0000 	   36.0000 	   58.0998
    0.4654 	    6.5660 	   22.0000 	   36.0000 	   58.2618
    0.4807 	    6.6475 	   22.0000 	   36.0000 	   58.4248
    0.5264 	    6.7280 	   22.0000 	   36.0000 	   58.5858
    0.2518 	    6.8140 	   22.0000 	   36.0000 	   58.7578
    0.4349 	    6.8955 	   22.0000 	   36.0000 	   58.9208
    0.4959 	    6.9775 	   22.0000 	   36.0000 	   59.0848
    0.2976 	    7.0585 	   22.0000 	   36.0000 	   59.2468
    0.2670 	    7.1400 	   22.0000 	   36.0000 	   59.4098
    0.5570 	    7.2220 	   22.0000 	   36.0000 	   59.5738
    0.4349 	    7.3040 	   22.0000 	   36.0000 	   59.7378
    0.4501 	    7.3820 	   22.0000 	   36.0000 	   59.8939
    0.3281 	    7.4650 	   22.0000 	   37.0000 	    0.0599
    0.3738 	    7.5490 	   22.0000 	   37.0000 	    0.2279
    0.4501 	    7.6305 	   22.0000 	   37.0000 	    0.3909
    0.4501 	    7.7140 	   22.0000 	   37.0000 	    0.5579
    0.6027 	    7.7965 	   22.0000 	   37.0000 	    0.7229
    0.4196 	    7.8810 	   22.0000 	   37.0000 	    0.8919
    0.4807 	    7.9635 	   22.0000 	   37.0000 	    1.0569
    0.5264 	    8.0485 	   22.0000 	   37.0000 	    1.2269
    0.4044 	    8.1305 	   22.0000 	   37.0000 	    1.3909
    0.4044 	    8.2130 	   22.0000 	   37.0000 	    1.5560
    0.4044 	    8.2955 	   22.0000 	   37.0000 	    1.7210
    0.4654 	    8.3675 	   22.0000 	   37.0000 	    1.8650
    0.2670 	    8.4425 	   22.0000 	   37.0000 	    2.0150
    0.6790 	    8.5215 	   22.0000 	   37.0000 	    2.1730
    0.5112 	    8.5980 	   22.0000 	   37.0000 	    2.3260
    0.4959 	    8.6815 	   22.0000 	   37.0000 	    2.4930
    0.4044 	    8.7670 	   22.0000 	   37.0000 	    2.6640
    0.1297 	    8.8525 	   22.0000 	   37.0000 	    2.8350
    0.3891 	    8.9350 	   22.0000 	   37.0000 	    3.0000
    0.4501 	    9.0190 	   22.0000 	   37.0000 	    3.1680
    0.5112 	    9.1025 	   22.0000 	   37.0000 	    3.3351
    0.3738 	    9.1845 	   22.0000 	   37.0000 	    3.4991
    0.4959 	    9.2690 	   22.0000 	   37.0000 	    3.6681
    0.4044 	    9.3525 	   22.0000 	   37.0000 	    3.8351
    0.5264 	    9.4365 	   22.0000 	   37.0000 	    4.0031
    0.5264 	    9.5200 	   22.0000 	   37.0000 	    4.1701
    0.4654 	    9.6025 	   22.0000 	   37.0000 	    4.3351
    0.4349 	    9.6870 	   22.0000 	   37.0000 	    4.5041
    0.4959 	    9.7695 	   22.0000 	   37.0000 	    4.6691
    0.5722 	    9.8550 	   22.0000 	   37.0000 	    4.8401
    0.5264 	    9.9405 	   22.0000 	   37.0000 	    5.0111
    0.3433 	   10.0240 	   22.0000 	   37.0000 	    5.1782
    0.4959 	   10.1105 	   22.0000 	   37.0000 	    5.3512
    0.5875 	   10.1930 	   22.0000 	   37.0000 	    5.5162
    0.4044 	   10.2770 	   22.0000 	   37.0000 	    5.6842
    0.5570 	   10.3605 	   22.0000 	   37.0000 	    5.8512
    0.2670 	   10.4440 	   22.0000 	   37.0000 	    6.0182
    0.5722 	   10.5185 	   22.0000 	   37.0000 	    6.1672
    0.4807 	   10.5990 	   22.0000 	   37.0000 	    6.3282
    0.5722 	   10.6835 	   22.0000 	   37.0000 	    6.4972
    0.5875 	   10.7680 	   22.0000 	   37.0000 	    6.6662
    0.5264 	   10.8565 	   22.0000 	   37.0000 	    6.8433
    0.4196 	   10.9405 	   22.0000 	   37.0000 	    7.0113
    0.4654 	   11.0230 	   22.0000 	   37.0000 	    7.1763
    0.5570 	   11.1035 	   22.0000 	   37.0000 	    7.3373
    0.3738 	   11.1790 	   22.0000 	   37.0000 	    7.4883
    0.5112 	   11.2625 	   22.0000 	   37.0000 	    7.6553
    0.6027 	   11.3470 	   22.0000 	   37.0000 	    7.8243
    0.4654 	   11.4380 	   22.0000 	   37.0000 	    8.0063
    0.6027 	   11.5235 	   22.0000 	   37.0000 	    8.1773
    0.3738 	   11.6115 	   22.0000 	   37.0000 	    8.3533
    0.5112 	   11.6990 	   22.0000 	   37.0000 	    8.5283
    0.5417 	   11.7845 	   22.0000 	   37.0000 	    8.6994
    0.6180 	   11.8710 	   22.0000 	   37.0000 	    8.8724
    0.5112 	   11.9585 	   22.0000 	   37.0000 	    9.0474
    0.5112 	   12.0440 	   22.0000 	   37.0000 	    9.2184
    0.5112 	   12.1265 	   22.0000 	   37.0000 	    9.3834
    0.5417 	   12.2025 	   22.0000 	   37.0000 	    9.5344
    0.4196 	   12.2815 	   22.0000 	   37.0000 	    9.6924
    0.4501 	   12.3580 	   22.0000 	   37.0000 	    9.8454
    0.5417 	   12.4370 	   22.0000 	   37.0000 	   10.0034
    0.5570 	   12.5140 	   22.0000 	   37.0000 	   10.1574
    0.5264 	   12.5925 	   22.0000 	   37.0000 	   10.3145
    0.6180 	   12.6705 	   22.0000 	   37.0000 	   10.4705
    0.5722 	   12.7530 	   22.0000 	   37.0000 	   10.6355
    0.6943 	   12.8345 	   22.0000 	   37.0000 	   10.7985
    0.6485 	   12.9120 	   22.0000 	   37.0000 	   10.9535
    0.5875 	   12.9985 	   22.0000 	   37.0000 	   11.1265
    0.4959 	   13.0875 	   22.0000 	   37.0000 	   11.3045
    0.4959 	   13.1710 	   22.0000 	   37.0000 	   11.4715
    0.5570 	   13.2590 	   22.0000 	   37.0000 	   11.6475
    0.5722 	   13.3475 	   22.0000 	   37.0000 	   11.8245
    0.6180 	   13.4340 	   22.0000 	   37.0000 	   11.9975
    0.5417 	   13.5195 	   22.0000 	   37.0000 	   12.1686
    0.5112 	   13.6125 	   22.0000 	   37.0000 	   12.3546
    0.4959 	   13.7000 	   22.0000 	   37.0000 	   12.5296
    0.6180 	   13.7905 	   22.0000 	   37.0000 	   12.7106
    0.6943 	   13.8785 	   22.0000 	   37.0000 	   12.8866
    0.5875 	   13.9670 	   22.0000 	   37.0000 	   13.0636
    0.6027 	   14.0565 	   22.0000 	   37.0000 	   13.2426
    0.5722 	   14.1450 	   22.0000 	   37.0000 	   13.4196
    0.6943 	   14.2340 	   22.0000 	   37.0000 	   13.5976
    0.2518 	   14.3245 	   22.0000 	   37.0000 	   13.7786
    0.6332 	   14.4120 	   22.0000 	   37.0000 	   13.9537
    0.4959 	   14.4995 	   22.0000 	   37.0000 	   14.1287
    0.6485 	   14.5855 	   22.0000 	   37.0000 	   14.3007
    0.5417 	   14.6655 	   22.0000 	   37.0000 	   14.4607
    0.7401 	   14.7450 	   22.0000 	   37.0000 	   14.6197
    0.7706 	   14.8260 	   22.0000 	   37.0000 	   14.7817
    0.5722 	   14.9060 	   22.0000 	   37.0000 	   14.9417
    0.6790 	   14.9870 	   22.0000 	   37.0000 	   15.1037
    0.6790 	   15.0715 	   22.0000 	   37.0000 	   15.2727
    0.5875 	   15.1510 	   22.0000 	   37.0000 	   15.4317
    0.7095 	   15.2300 	   22.0000 	   37.0000 	   15.5898
    0.6027 	   15.3165 	   22.0000 	   37.0000 	   15.7628
    0.6790 	   15.4040 	   22.0000 	   37.0000 	   15.9378
    0.6638 	   15.4915 	   22.0000 	   37.0000 	   16.1128
    0.6027 	   15.5805 	   22.0000 	   37.0000 	   16.2908
    0.5875 	   15.6655 	   22.0000 	   37.0000 	   16.4608
    0.5264 	   15.7645 	   22.0000 	   37.0000 	   16.6588
    0.7706 	   15.8530 	   22.0000 	   37.0000 	   16.8358
    0.6790 	   15.9440 	   22.0000 	   37.0000 	   17.0178
    0.8164 	   16.0310 	   22.0000 	   37.0000 	   17.1918
    0.8011 	   16.1215 	   22.0000 	   37.0000 	   17.3729
    0.7401 	   16.2065 	   22.0000 	   37.0000 	   17.5429
    0.7095 	   16.2870 	   22.0000 	   37.0000 	   17.7039
    0.5875 	   16.3675 	   22.0000 	   37.0000 	   17.8649
    0.6027 	   16.4480 	   22.0000 	   37.0000 	   18.0259
    0.6638 	   16.5275 	   22.0000 	   37.0000 	   18.1849
    0.6790 	   16.6090 	   22.0000 	   37.0000 	   18.3479
    0.4501 	   16.6895 	   22.0000 	   37.0000 	   18.5089
    0.6027 	   16.7710 	   22.0000 	   37.0000 	   18.6719
    0.6180 	   16.8515 	   22.0000 	   37.0000 	   18.8329
    0.6332 	   16.9425 	   22.0000 	   37.0000 	   19.0149
    0.7553 	   17.0330 	   22.0000 	   37.0000 	   19.1960
    0.6485 	   17.1200 	   22.0000 	   37.0000 	   19.3700
    0.6638 	   17.2055 	   22.0000 	   37.0000 	   19.5410
    0.7095 	   17.2960 	   22.0000 	   37.0000 	   19.7220
    0.6180 	   17.3875 	   22.0000 	   37.0000 	   19.9050
    0.8164 	   17.4785 	   22.0000 	   37.0000 	   20.0870
    0.6027 	   17.5720 	   22.0000 	   37.0000 	   20.2740
    0.7553 	   17.6630 	   22.0000 	   37.0000 	   20.4560
    0.6485 	   17.7550 	   22.0000 	   37.0000 	   20.6400
    0.6180 	   17.8475 	   22.0000 	   37.0000 	   20.8251
    0.4349 	   17.9315 	   22.0000 	   37.0000 	   20.9931
    0.6027 	   18.0135 	   22.0000 	   37.0000 	   21.1571
    0.7095 	   18.1010 	   22.0000 	   37.0000 	   21.3321
    0.6943 	   18.1835 	   22.0000 	   37.0000 	   21.4971
    0.6638 	   18.2655 	   22.0000 	   37.0000 	   21.6611
    0.5570 	   18.3485 	   22.0000 	   37.0000 	   21.8271
    0.8316 	   18.4315 	   22.0000 	   37.0000 	   21.9931
    0.6180 	   18.5165 	   22.0000 	   37.0000 	   22.1631
    0.6180 	   18.6015 	   22.0000 	   37.0000 	   22.3331
    0.7401 	   18.6925 	   22.0000 	   37.0000 	   22.5151
    0.6638 	   18.7810 	   22.0000 	   37.0000 	   22.6922
    0.8621 	   18.8650 	   22.0000 	   37.0000 	   22.8602
    0.6790 	   18.9515 	   22.0000 	   37.0000 	   23.0332
    0.6180 	   19.0410 	   22.0000 	   37.0000 	   23.2122
    0.7553 	   19.1240 	   22.0000 	   37.0000 	   23.3782
    0.6638 	   19.2080 	   22.0000 	   37.0000 	   23.5462
    0.8011 	   19.3005 	   22.0000 	   37.0000 	   23.7312
    0.7401 	   19.3950 	   22.0000 	   37.0000 	   23.9202
    0.8011 	   19.4880 	   22.0000 	   37.0000 	   24.1062
    0.7706 	   19.5755 	   22.0000 	   37.0000 	   24.2812
    0.6485 	   19.6605 	   22.0000 	   37.0000 	   24.4513
    0.7095 	   19.7425 	   22.0000 	   37.0000 	   24.6153
    0.7401 	   19.8390 	   22.0000 	   37.0000 	   24.8083
    0.8621 	   19.9240 	   22.0000 	   37.0000 	   24.9783
    0.9079 	   20.0105 	   22.0000 	   37.0000 	   25.1513
    0.6943 	   20.0960 	   22.0000 	   37.0000 	   25.3223
    0.7858 	   20.1795 	   22.0000 	   37.0000 	   25.4893
    0.5570 	   20.2620 	   22.0000 	   37.0000 	   25.6543
    0.8927 	   20.3460 	   22.0000 	   37.0000 	   25.8223
    0.7553 	   20.4305 	   22.0000 	   37.0000 	   25.9913
    0.7553 	   20.5145 	   22.0000 	   37.0000 	   26.1594
    0.7553 	   20.6015 	   22.0000 	   37.0000 	   26.3334
    0.7401 	   20.6940 	   22.0000 	   37.0000 	   26.5184
    0.7706 	   20.7890 	   22.0000 	   37.0000 	   26.7084
    0.8164 	   20.8835 	   22.0000 	   37.0000 	   26.8964
    0.8469 	   20.9770 	   22.0000 	   37.0000 	   27.0834
    0.9232 	   21.0660 	   22.0000 	   37.0000 	   27.2614
    0.6180 	   21.1535 	   22.0000 	   37.0000 	   27.4364
    0.4501 	   21.2490 	   22.0000 	   37.0000 	   27.6274
    1.0605 	   21.3445 	   22.0000 	   37.0000 	   27.8185
    0.8011 	   21.4310 	   22.0000 	   37.0000 	   27.9915
    0.8164 	   21.5260 	   22.0000 	   37.0000 	   28.1815
    0.5417 	   21.6205 	   22.0000 	   37.0000 	   28.3705
    0.7095 	   21.7110 	   22.0000 	   37.0000 	   28.5515
    0.6180 	   21.7990 	   22.0000 	   37.0000 	   28.7275
    0.8011 	   21.8820 	   22.0000 	   37.0000 	   28.8935
    0.7706 	   21.9685 	   22.0000 	   37.0000 	   29.0665
    0.9995 	   22.0575 	   22.0000 	   37.0000 	   29.2445
    0.7706 	   22.1425 	   22.0000 	   37.0000 	   29.4145
    0.8316 	   22.2280 	   22.0000 	   37.0000 	   29.5856
    0.8011 	   22.3205 	   22.0000 	   37.0000 	   29.7706
    0.8774 	   22.4085 	   22.0000 	   37.0000 	   29.9466
    0.8164 	   22.4940 	   22.0000 	   37.0000 	   30.1176
    0.8774 	   22.5845 	   22.0000 	   37.0000 	   30.2986
    0.8774 	   22.6820 	   22.0000 	   37.0000 	   30.4936
    0.8316 	   22.7835 	   22.0000 	   37.0000 	   30.6966
    0.8621 	   22.8785 	   22.0000 	   37.0000 	   30.8856
    0.8316 	   22.9710 	   22.0000 	   37.0000 	   31.0716
    0.6332 	   23.0690 	   22.0000 	   37.0000 	   31.2677
    0.8011 	   23.1580 	   22.0000 	   37.0000 	   31.4457
    0.9995 	   23.2500 	   22.0000 	   37.0000 	   31.6297
    0.9232 	   23.3445 	   22.0000 	   37.0000 	   31.8187
    0.9232 	   23.4395 	   22.0000 	   37.0000 	   32.0087
    0.8316 	   23.5355 	   22.0000 	   37.0000 	   32.2007
    0.8774 	   23.6325 	   22.0000 	   37.0000 	   32.3947
    0.8316 	   23.7280 	   22.0000 	   37.0000 	   32.5857
    0.9689 	   23.8225 	   22.0000 	   37.0000 	   32.7747
    0.9079 	   23.9105 	   22.0000 	   37.0000 	   32.9507
    1.0452 	   24.0080 	   22.0000 	   37.0000 	   33.1458
    0.8621 	   24.1065 	   22.0000 	   37.0000 	   33.3428
    0.6485 	   24.1970 	   22.0000 	   37.0000 	   33.5238
    0.9689 	   24.2895 	   22.0000 	   37.0000 	   33.7088
    0.9842 	   24.3850 	   22.0000 	   37.0000 	   33.8998
    1.0452 	   24.4795 	   22.0000 	   37.0000 	   34.0888
    0.9384 	   24.5675 	   22.0000 	   37.0000 	   34.2648
    0.9842 	   24.6555 	   22.0000 	   37.0000 	   34.4408
    0.9384 	   24.7415 	   22.0000 	   37.0000 	   34.6128
    0.8316 	   24.8310 	   22.0000 	   37.0000 	   34.7919
    1.0758 	   24.9175 	   22.0000 	   37.0000 	   34.9649
    0.9384 	   25.0055 	   22.0000 	   37.0000 	   35.1409
    0.7858 	   25.0930 	   22.0000 	   37.0000 	   35.3159
    1.1826 	   25.1810 	   22.0000 	   37.0000 	   35.4919
    1.0758 	   25.2685 	   22.0000 	   37.0000 	   35.6669
    1.0300 	   25.3560 	   22.0000 	   37.0000 	   35.8419
    1.0147 	   25.4435 	   22.0000 	   37.0000 	   36.0169
    1.0605 	   25.5350 	   22.0000 	   37.0000 	   36.1999
    0.7401 	   25.6330 	   22.0000 	   37.0000 	   36.3959
    1.1368 	   25.7260 	   22.0000 	   37.0000 	   36.5820
    1.0300 	   25.8220 	   22.0000 	   37.0000 	   36.7740
    1.3199 	   25.9145 	   22.0000 	   37.0000 	   36.9590
    1.0452 	   26.0035 	   22.0000 	   37.0000 	   37.1370
    0.9995 	   26.0930 	   22.0000 	   37.0000 	   37.3160
    1.0758 	   26.1905 	   22.0000 	   37.0000 	   37.5110
    1.0910 	   26.2870 	   22.0000 	   37.0000 	   37.7040
    1.0300 	   26.3825 	   22.0000 	   37.0000 	   37.8950
    1.0452 	   26.4800 	   22.0000 	   37.0000 	   38.0900
    1.1368 	   26.5780 	   22.0000 	   37.0000 	   38.2861
    1.1215 	   26.6740 	   22.0000 	   37.0000 	   38.4781
    0.8011 	   26.7710 	   22.0000 	   37.0000 	   38.6721
    1.0300 	   26.8580 	   22.0000 	   37.0000 	   38.8461
    1.0758 	   26.9455 	   22.0000 	   37.0000 	   39.0211
    1.0300 	   27.0345 	   22.0000 	   37.0000 	   39.1991
    1.1521 	   27.1310 	   22.0000 	   37.0000 	   39.3921
    1.1063 	   27.2270 	   22.0000 	   37.0000 	   39.5841
    1.1521 	   27.3240 	   22.0000 	   37.0000 	   39.7781
    1.3199 	   27.4200 	   22.0000 	   37.0000 	   39.9701
    1.0605 	   27.5120 	   22.0000 	   37.0000 	   40.1542
    1.1368 	   27.6070 	   22.0000 	   37.0000 	   40.3442
    1.0605 	   27.6935 	   22.0000 	   37.0000 	   40.5172
    1.3504 	   27.7825 	   22.0000 	   37.0000 	   40.6952
    1.0300 	   27.8695 	   22.0000 	   37.0000 	   40.8692
    1.0910 	   27.9640 	   22.0000 	   37.0000 	   41.0582
    1.1063 	   28.0635 	   22.0000 	   37.0000 	   41.2572
    1.1368 	   28.1625 	   22.0000 	   37.0000 	   41.4552
    1.1673 	   28.2615 	   22.0000 	   37.0000 	   41.6532
    1.2436 	   28.3575 	   22.0000 	   37.0000 	   41.8453
    1.2436 	   28.4565 	   22.0000 	   37.0000 	   42.0433
    0.9689 	   28.5570 	   22.0000 	   37.0000 	   42.2443
    1.1978 	   28.6540 	   22.0000 	   37.0000 	   42.4383
    1.2894 	   28.7515 	   22.0000 	   37.0000 	   42.6333
    1.1673 	   28.8465 	   22.0000 	   37.0000 	   42.8233
    1.3352 	   28.9470 	   22.0000 	   37.0000 	   43.0243
    1.2894 	   29.0445 	   22.0000 	   37.0000 	   43.2193
    1.1368 	   29.1435 	   22.0000 	   37.0000 	   43.4173
    1.2894 	   29.2415 	   22.0000 	   37.0000 	   43.6134
    1.1368 	   29.3395 	   22.0000 	   37.0000 	   43.8094
    1.1978 	   29.4275 	   22.0000 	   37.0000 	   43.9854
    1.2131 	   29.5175 	   22.0000 	   37.0000 	   44.1654
    1.2589 	   29.6145 	   22.0000 	   37.0000 	   44.3594
    1.1215 	   29.7105 	   22.0000 	   37.0000 	   44.5504
    1.2894 	   29.8040 	   22.0000 	   37.0000 	   44.7374
    1.0758 	   29.8925 	   22.0000 	   37.0000 	   44.9144
    1.3199 	   29.9800 	   22.0000 	   37.0000 	   45.0894
    1.2589 	   30.0770 	   22.0000 	   37.0000 	   45.2835
    1.4420 	   30.1645 	   22.0000 	   37.0000 	   45.4585
    1.4420 	   30.2590 	   22.0000 	   37.0000 	   45.6475
    1.4420 	   30.3560 	   22.0000 	   37.0000 	   45.8415
    1.3046 	   30.4535 	   22.0000 	   37.0000 	   46.0365
    1.3504 	   30.5445 	   22.0000 	   37.0000 	   46.2185
    1.2436 	   30.6400 	   22.0000 	   37.0000 	   46.4095
    1.0452 	   30.7405 	   22.0000 	   37.0000 	   46.6105
    1.2741 	   30.8415 	   22.0000 	   37.0000 	   46.8125
    1.3809 	   30.9395 	   22.0000 	   37.0000 	   47.0085
    1.4725 	   31.0315 	   22.0000 	   37.0000 	   47.1926
    1.3962 	   31.1335 	   22.0000 	   37.0000 	   47.3966
    1.4267 	   31.2325 	   22.0000 	   37.0000 	   47.5946
    1.5793 	   31.3270 	   22.0000 	   37.0000 	   47.7836
    1.4267 	   31.4215 	   22.0000 	   37.0000 	   47.9726
    1.4725 	   31.5210 	   22.0000 	   37.0000 	   48.1716
    1.5335 	   31.6230 	   22.0000 	   37.0000 	   48.3756
    1.5640 	   31.7210 	   22.0000 	   37.0000 	   48.5716
    1.4725 	   31.8185 	   22.0000 	   37.0000 	   48.7667
    1.3657 	   31.9185 	   22.0000 	   37.0000 	   48.9667
    1.4267 	   32.0195 	   22.0000 	   37.0000 	   49.1687
    1.5640 	   32.1195 	   22.0000 	   37.0000 	   49.3687
    1.4420 	   32.2095 	   22.0000 	   37.0000 	   49.5487
    1.3962 	   32.3010 	   22.0000 	   37.0000 	   49.7317
    1.5640 	   32.3990 	   22.0000 	   37.0000 	   49.9277
    1.1521 	   32.5045 	   22.0000 	   37.0000 	   50.1387
    1.3809 	   32.6065 	   22.0000 	   37.0000 	   50.3427
    1.5335 	   32.7065 	   22.0000 	   37.0000 	   50.5428
    1.5335 	   32.8070 	   22.0000 	   37.0000 	   50.7438
    1.4878 	   32.9085 	   22.0000 	   37.0000 	   50.9468
    1.3657 	   33.0090 	   22.0000 	   37.0000 	   51.1478
    1.5793 	   33.1100 	   22.0000 	   37.0000 	   51.3498
    1.2589 	   33.2040 	   22.0000 	   37.0000 	   51.5378
    1.7319 	   33.2955 	   22.0000 	   37.0000 	   51.7208
    1.5030 	   33.3845 	   22.0000 	   37.0000 	   51.8988
    1.5488 	   33.4790 	   22.0000 	   37.0000 	   52.0878
    1.4572 	   33.5680 	   22.0000 	   37.0000 	   52.2659
    1.5183 	   33.6565 	   22.0000 	   37.0000 	   52.4429
    1.5946 	   33.7450 	   22.0000 	   37.0000 	   52.6199
    1.7472 	   33.8375 	   22.0000 	   37.0000 	   52.8049
    1.6251 	   33.9340 	   22.0000 	   37.0000 	   52.9979
    1.6251 	   34.0360 	   22.0000 	   37.0000 	   53.2019
    1.5793 	   34.1365 	   22.0000 	   37.0000 	   53.4029
    1.4115 	   34.2365 	   22.0000 	   37.0000 	   53.6029
    1.7472 	   34.3355 	   22.0000 	   37.0000 	   53.8009
    1.5640 	   34.4330 	   22.0000 	   37.0000 	   53.9959
    1.7166 	   34.5220 	   22.0000 	   37.0000 	   54.1740
    1.6709 	   34.6110 	   22.0000 	   37.0000 	   54.3520
    1.6403 	   34.6995 	   22.0000 	   37.0000 	   54.5290
    1.6556 	   34.7940 	   22.0000 	   37.0000 	   54.7180
    1.7777 	   34.8935 	   22.0000 	   37.0000 	   54.9170
    1.7777 	   34.9930 	   22.0000 	   37.0000 	   55.1160
    1.6403 	   35.0935 	   22.0000 	   37.0000 	   55.3170
    1.6861 	   35.1950 	   22.0000 	   37.0000 	   55.5200
    1.7319 	   35.2945 	   22.0000 	   37.0000 	   55.7190
    1.7624 	   35.3965 	   22.0000 	   37.0000 	   55.9231
    1.7929 	   35.4965 	   22.0000 	   37.0000 	   56.1231
    1.8387 	   35.5955 	   22.0000 	   37.0000 	   56.3211
    1.7166 	   35.6940 	   22.0000 	   37.0000 	   56.5181
    1.8387 	   35.7915 	   22.0000 	   37.0000 	   56.7131
    1.8235 	   35.8880 	   22.0000 	   37.0000 	   56.9061
    1.8082 	   35.9835 	   22.0000 	   37.0000 	   57.0971
    1.7319 	   36.0810 	   22.0000 	   37.0000 	   57.2921
    1.8997 	   36.1830 	   22.0000 	   37.0000 	   57.4952
    1.7472 	   36.2820 	   22.0000 	   37.0000 	   57.6942
    1.8692 	   36.3825 	   22.0000 	   37.0000 	   57.8952
    1.8540 	   36.4830 	   22.0000 	   37.0000 	   58.0962
    2.0066 	   36.5840 	   22.0000 	   37.0000 	   58.2982
    1.9303 	   36.6865 	   22.0000 	   37.0000 	   58.5032
    1.8540 	   36.7855 	   22.0000 	   37.0000 	   58.7012
    1.8845 	   36.8830 	   22.0000 	   37.0000 	   58.8952
    1.7166 	   36.9770 	   22.0000 	   37.0000 	   59.0842
    1.9303 	   37.0780 	   22.0000 	   37.0000 	   59.2863
    2.0066 	   37.1775 	   22.0000 	   37.0000 	   59.4853
    1.8387 	   37.2765 	   22.0000 	   37.0000 	   59.6833
    1.8997 	   37.3780 	   22.0000 	   37.0000 	   59.8863
    2.0676 	   37.4730 	   22.0000 	   38.0000 	    0.0763
    1.8387 	   37.5755 	   22.0000 	   38.0000 	    0.2813
    1.9760 	   37.6745 	   22.0000 	   38.0000 	    0.4793
    1.9913 	   37.7750 	   22.0000 	   38.0000 	    0.6803
    1.9150 	   37.8745 	   22.0000 	   38.0000 	    0.8793
    2.0218 	   37.9740 	   22.0000 	   38.0000 	    1.0784
    2.0829 	   38.0770 	   22.0000 	   38.0000 	    1.2844
    2.0981 	   38.1775 	   22.0000 	   38.0000 	    1.4854
    2.0066 	   38.2795 	   22.0000 	   38.0000 	    1.6894
    2.1592 	   38.3825 	   22.0000 	   38.0000 	    1.8944
    1.9455 	   38.4855 	   22.0000 	   38.0000 	    2.1004
    2.0829 	   38.5855 	   22.0000 	   38.0000 	    2.3004
    2.0981 	   38.6865 	   22.0000 	   38.0000 	    2.5024
    1.9913 	   38.7870 	   22.0000 	   38.0000 	    2.7034
    2.1592 	   38.8880 	   22.0000 	   38.0000 	    2.9055
    2.1439 	   38.9910 	   22.0000 	   38.0000 	    3.1115
    2.1286 	   39.0950 	   22.0000 	   38.0000 	    3.3195
    2.1439 	   39.1940 	   22.0000 	   38.0000 	    3.5175
    2.0676 	   39.2960 	   22.0000 	   38.0000 	    3.7215
    2.1134 	   39.3990 	   22.0000 	   38.0000 	    3.9275
    2.2507 	   39.4975 	   22.0000 	   38.0000 	    4.1245
    2.1134 	   39.5870 	   22.0000 	   38.0000 	    4.3035
    2.2202 	   39.6780 	   22.0000 	   38.0000 	    4.4855
    2.1592 	   39.7710 	   22.0000 	   38.0000 	    4.6716
    2.3270 	   39.8705 	   22.0000 	   38.0000 	    4.8706
    2.1744 	   39.9670 	   22.0000 	   38.0000 	    5.0636
    2.0371 	   40.0620 	   22.0000 	   38.0000 	    5.2536
    2.0981 	   40.1530 	   22.0000 	   38.0000 	    5.4356
    1.8997 	   40.2485 	   22.0000 	   38.0000 	    5.6266
    1.8845 	   40.3505 	   22.0000 	   38.0000 	    5.8306
    1.9455 	   40.4520 	   22.0000 	   38.0000 	    6.0336
    1.8082 	   40.5525 	   22.0000 	   38.0000 	    6.2336
    1.5335 	   40.6540 	   22.0000 	   38.0000 	    6.4377
    1.8845 	   40.7560 	   22.0000 	   38.0000 	    6.6417
    1.6861 	   40.8580 	   22.0000 	   38.0000 	    6.8457
    1.3504 	   40.9600 	   22.0000 	   38.0000 	    7.0497
    1.6556 	   41.0620 	   22.0000 	   38.0000 	    7.2537
    1.7472 	   41.1605 	   22.0000 	   38.0000 	    7.4507
    1.7777 	   41.2605 	   22.0000 	   38.0000 	    7.6507
    1.5183 	   41.3630 	   22.0000 	   38.0000 	    7.8557
    1.4878 	   41.4670 	   22.0000 	   38.0000 	    8.0638
    1.3809 	   41.5685 	   22.0000 	   38.0000 	    8.2668
    1.6251 	   41.6710 	   22.0000 	   38.0000 	    8.4718
    1.5183 	   41.7755 	   22.0000 	   38.0000 	    8.6808
    1.4878 	   41.8785 	   22.0000 	   38.0000 	    8.8868
    1.4725 	   41.9810 	   22.0000 	   38.0000 	    9.0918
    1.5640 	   42.0835 	   22.0000 	   38.0000 	    9.2968
    1.5030 	   42.1870 	   22.0000 	   38.0000 	    9.5038
    1.5793 	   42.2885 	   22.0000 	   38.0000 	    9.7068
    1.3657 	   42.3930 	   22.0000 	   38.0000 	    9.9159
    1.4267 	   42.4900 	   22.0000 	   38.0000 	   10.1099
    1.4115 	   42.5850 	   22.0000 	   38.0000 	   10.2999
    1.4115 	   42.6790 	   22.0000 	   38.0000 	   10.4879
    1.3657 	   42.7865 	   22.0000 	   38.0000 	   10.7029
    1.4878 	   42.8795 	   22.0000 	   38.0000 	   10.8889
    1.0758 	   42.9815 	   22.0000 	   38.0000 	   11.0929
    1.3199 	   43.0870 	   22.0000 	   38.0000 	   11.3039
    1.5183 	   43.1895 	   22.0000 	   38.0000 	   11.5090
    1.2741 	   43.2945 	   22.0000 	   38.0000 	   11.7190
    1.2741 	   43.3975 	   22.0000 	   38.0000 	   11.9250
    1.3046 	   43.4950 	   22.0000 	   38.0000 	   12.1200
    1.2589 	   43.5880 	   22.0000 	   38.0000 	   12.3060
    1.2589 	   43.6865 	   22.0000 	   38.0000 	   12.5030
    1.2741 	   43.7870 	   22.0000 	   38.0000 	   12.7040
    1.4115 	   43.8890 	   22.0000 	   38.0000 	   12.9080
    1.2131 	   43.9850 	   22.0000 	   38.0000 	   13.1000
    1.1521 	   44.0805 	   22.0000 	   38.0000 	   13.2911
    1.1826 	   44.1765 	   22.0000 	   38.0000 	   13.4831
    1.1978 	   44.2695 	   22.0000 	   38.0000 	   13.6691
    1.2131 	   44.3665 	   22.0000 	   38.0000 	   13.8631
    1.1215 	   44.4660 	   22.0000 	   38.0000 	   14.0621
    1.2436 	   44.5705 	   22.0000 	   38.0000 	   14.2711
    1.0758 	   44.6775 	   22.0000 	   38.0000 	   14.4851
    1.0452 	   44.7855 	   22.0000 	   38.0000 	   14.7011
    1.1673 	   44.8795 	   22.0000 	   38.0000 	   14.8891
    1.0910 	   44.9735 	   22.0000 	   38.0000 	   15.0772
    1.3046 	   45.0700 	   22.0000 	   38.0000 	   15.2702
    1.2284 	   45.1745 	   22.0000 	   38.0000 	   15.4792
    1.0758 	   45.2795 	   22.0000 	   38.0000 	   15.6892
    1.1521 	   45.3820 	   22.0000 	   38.0000 	   15.8942
    1.0300 	   45.4835 	   22.0000 	   38.0000 	   16.0972
    1.0758 	   45.5845 	   22.0000 	   38.0000 	   16.2992
    1.1368 	   45.6825 	   22.0000 	   38.0000 	   16.4952
    0.9995 	   45.7850 	   22.0000 	   38.0000 	   16.7002
    0.9232 	   45.8905 	   22.0000 	   38.0000 	   16.9113
    1.0758 	   45.9965 	   22.0000 	   38.0000 	   17.1233
    1.1826 	   46.1020 	   22.0000 	   38.0000 	   17.3343
    1.1978 	   46.2075 	   22.0000 	   38.0000 	   17.5453
    1.0910 	   46.3140 	   22.0000 	   38.0000 	   17.7583
    0.9995 	   46.4205 	   22.0000 	   38.0000 	   17.9713
    1.0300 	   46.5275 	   22.0000 	   38.0000 	   18.1853
    1.1215 	   46.6330 	   22.0000 	   38.0000 	   18.3963
    1.0910 	   46.7410 	   22.0000 	   38.0000 	   18.6124
    1.1521 	   46.8455 	   22.0000 	   38.0000 	   18.8214
    0.9537 	   46.9490 	   22.0000 	   38.0000 	   19.0284
    0.8927 	   47.0560 	   22.0000 	   38.0000 	   19.2424
    0.9995 	   47.1545 	   22.0000 	   38.0000 	   19.4384
    0.9232 	   47.2510 	   22.0000 	   38.0000 	   19.6314
    0.8164 	   47.3475 	   22.0000 	   38.0000 	   19.8244
    0.9689 	   47.4495 	   22.0000 	   38.0000 	   20.0284
    0.8927 	   47.5570 	   22.0000 	   38.0000 	   20.2435
    0.9537 	   47.6640 	   22.0000 	   38.0000 	   20.4575
    0.8469 	   47.7690 	   22.0000 	   38.0000 	   20.6675
    0.9232 	   47.8740 	   22.0000 	   38.0000 	   20.8775
    1.0452 	   47.9805 	   22.0000 	   38.0000 	   21.0905
    0.8469 	   48.0900 	   22.0000 	   38.0000 	   21.3095
    0.9232 	   48.1960 	   22.0000 	   38.0000 	   21.5215
    0.8011 	   48.3035 	   22.0000 	   38.0000 	   21.7365
    0.9232 	   48.4110 	   22.0000 	   38.0000 	   21.9515
    0.8927 	   48.5165 	   22.0000 	   38.0000 	   22.1626
    1.1368 	   48.6250 	   22.0000 	   38.0000 	   22.3796
    0.9384 	   48.7305 	   22.0000 	   38.0000 	   22.5906
    1.0147 	   48.8300 	   22.0000 	   38.0000 	   22.7896
    0.9079 	   48.9305 	   22.0000 	   38.0000 	   22.9906
    1.0452 	   49.0300 	   22.0000 	   38.0000 	   23.1896
    0.9232 	   49.1310 	   22.0000 	   38.0000 	   23.3916
    0.7095 	   49.2280 	   22.0000 	   38.0000 	   23.5856
    0.8927 	   49.3270 	   22.0000 	   38.0000 	   23.7837
    0.8011 	   49.4260 	   22.0000 	   38.0000 	   23.9817
    0.9384 	   49.5235 	   22.0000 	   38.0000 	   24.1767
    0.9232 	   49.6235 	   22.0000 	   38.0000 	   24.3767
    0.8927 	   49.7285 	   22.0000 	   38.0000 	   24.5867
    0.9232 	   49.8280 	   22.0000 	   38.0000 	   24.7857
    0.8316 	   49.9315 	   22.0000 	   38.0000 	   24.9927
    0.8621 	   50.0300 	   22.0000 	   38.0000 	   25.1897
    0.8164 	   50.1310 	   22.0000 	   38.0000 	   25.3917
    0.7858 	   50.2290 	   22.0000 	   38.0000 	   25.5878
    0.8011 	   50.3285 	   22.0000 	   38.0000 	   25.7868
    0.8164 	   50.4280 	   22.0000 	   38.0000 	   25.9858
    0.7706 	   50.5290 	   22.0000 	   38.0000 	   26.1878
    0.8316 	   50.6295 	   22.0000 	   38.0000 	   26.3888
    0.8469 	   50.7335 	   22.0000 	   38.0000 	   26.5968
    0.8316 	   50.8425 	   22.0000 	   38.0000 	   26.8148
    0.8011 	   50.9510 	   22.0000 	   38.0000 	   27.0318
    0.9232 	   51.0605 	   22.0000 	   38.0000 	   27.2509
    0.7095 	   51.1665 	   22.0000 	   38.0000 	   27.4629
    0.7553 	   51.2650 	   22.0000 	   38.0000 	   27.6599
    0.6485 	   51.3720 	   22.0000 	   38.0000 	   27.8739
    0.8011 	   51.4825 	   22.0000 	   38.0000 	   28.0949
    0.7095 	   51.5910 	   22.0000 	   38.0000 	   28.3119
    0.6790 	   51.7010 	   22.0000 	   38.0000 	   28.5319
    0.9079 	   51.8005 	   22.0000 	   38.0000 	   28.7309
    0.7095 	   51.9030 	   22.0000 	   38.0000 	   28.9359
    0.8774 	   52.0030 	   22.0000 	   38.0000 	   29.1360
    0.6943 	   52.1080 	   22.0000 	   38.0000 	   29.3460
    0.6943 	   52.2150 	   22.0000 	   38.0000 	   29.5600
    0.7553 	   52.3205 	   22.0000 	   38.0000 	   29.7710
    0.7706 	   52.4280 	   22.0000 	   38.0000 	   29.9860
    0.6943 	   52.5390 	   22.0000 	   38.0000 	   30.2080
    0.5875 	   52.6455 	   22.0000 	   38.0000 	   30.4210
    0.8621 	   52.7465 	   22.0000 	   38.0000 	   30.6230
    0.6790 	   52.8495 	   22.0000 	   38.0000 	   30.8291
    0.8011 	   52.9595 	   22.0000 	   38.0000 	   31.0491
    0.6180 	   53.0685 	   22.0000 	   38.0000 	   31.2671
    0.7401 	   53.1700 	   22.0000 	   38.0000 	   31.4701
    0.5570 	   53.2715 	   22.0000 	   38.0000 	   31.6731
    0.6638 	   53.3765 	   22.0000 	   38.0000 	   31.8831
    0.6790 	   53.4855 	   22.0000 	   38.0000 	   32.1011
    0.6790 	   53.5950 	   22.0000 	   38.0000 	   32.3201
    0.6180 	   53.7025 	   22.0000 	   38.0000 	   32.5352
    0.2976 	   53.8105 	   22.0000 	   38.0000 	   32.7512
    0.4196 	   53.9185 	   22.0000 	   38.0000 	   32.9672
    0.6943 	   54.0280 	   22.0000 	   38.0000 	   33.1862
    0.6332 	   54.1400 	   22.0000 	   38.0000 	   33.4102
    0.6485 	   54.2515 	   22.0000 	   38.0000 	   33.6332
    0.7401 	   54.3640 	   22.0000 	   38.0000 	   33.8582
    0.6180 	   54.4755 	   22.0000 	   38.0000 	   34.0812
    0.7248 	   54.5850 	   22.0000 	   38.0000 	   34.3003
    0.7401 	   54.6860 	   22.0000 	   38.0000 	   34.5023
    0.7553 	   54.7930 	   22.0000 	   38.0000 	   34.7163
    0.6943 	   54.9020 	   22.0000 	   38.0000 	   34.9343
    0.5417 	   55.0115 	   22.0000 	   38.0000 	   35.1533
    0.8164 	   55.1235 	   22.0000 	   38.0000 	   35.3773
    0.5112 	   55.2235 	   22.0000 	   38.0000 	   35.5773
    0.5722 	   55.3225 	   22.0000 	   38.0000 	   35.7753
    0.6638 	   55.4260 	   22.0000 	   38.0000 	   35.9824
    0.7095 	   55.5380 	   22.0000 	   38.0000 	   36.2064
    0.6027 	   55.6445 	   22.0000 	   38.0000 	   36.4194
    0.5570 	   55.7490 	   22.0000 	   38.0000 	   36.6284
    0.6485 	   55.8620 	   22.0000 	   38.0000 	   36.8534
    0.7095 	   55.9720 	   22.0000 	   38.0000 	   37.0734
    0.6638 	   56.0825 	   22.0000 	   38.0000 	   37.2944
    0.5722 	   56.1895 	   22.0000 	   38.0000 	   37.5084
    0.6485 	   56.2950 	   22.0000 	   38.0000 	   37.7195
    0.6638 	   56.4065 	   22.0000 	   38.0000 	   37.9425
    0.5417 	   56.5180 	   22.0000 	   38.0000 	   38.1655
    0.2976 	   56.6270 	   22.0000 	   38.0000 	   38.3835
    0.6180 	   56.7340 	   22.0000 	   38.0000 	   38.5975
    0.6180 	   56.8410 	   22.0000 	   38.0000 	   38.8115
    0.6332 	   56.9535 	   22.0000 	   38.0000 	   39.0365
    0.6790 	   57.0545 	   22.0000 	   38.0000 	   39.2385
    0.6790 	   57.1545 	   22.0000 	   38.0000 	   39.4385
    0.6638 	   57.2550 	   22.0000 	   38.0000 	   39.6396
    0.5875 	   57.3560 	   22.0000 	   38.0000 	   39.8416
    0.3891 	   57.4610 	   22.0000 	   38.0000 	   40.0516
    0.5722 	   57.5630 	   22.0000 	   38.0000 	   40.2556
    0.4654 	   57.6755 	   22.0000 	   38.0000 	   40.4806
    0.5570 	   57.7900 	   22.0000 	   38.0000 	   40.7096
    0.5722 	   57.9295 	   22.0000 	   38.0000 	   40.9886
    0.7401 	   58.0315 	   22.0000 	   38.0000 	   41.1926
    0.4349 	   58.1390 	   22.0000 	   38.0000 	   41.4077
    0.6180 	   58.2470 	   22.0000 	   38.0000 	   41.6237
    0.4349 	   58.3600 	   22.0000 	   38.0000 	   41.8497
    0.4501 	   58.4640 	   22.0000 	   38.0000 	   42.0577
    0.5264 	   58.5675 	   22.0000 	   38.0000 	   42.2637
    0.5264 	   58.6695 	   22.0000 	   38.0000 	   42.4687
    0.7858 	   58.7745 	   22.0000 	   38.0000 	   42.6787
    0.6943 	   58.8890 	   22.0000 	   38.0000 	   42.9077
    0.5264 	   59.0020 	   22.0000 	   38.0000 	   43.1338
    0.5722 	   59.1110 	   22.0000 	   38.0000 	   43.3518
    0.5112 	   59.2125 	   22.0000 	   38.0000 	   43.5548
    0.5722 	   59.3155 	   22.0000 	   38.0000 	   43.7608
    0.4654 	   59.4200 	   22.0000 	   38.0000 	   43.9698
    0.1602 	   59.5315 	   22.0000 	   38.0000 	   44.1928
    0.5875 	   59.6440 	   22.0000 	   38.0000 	   44.4178
    0.4501 	   59.7475 	   22.0000 	   38.0000 	   44.6248
    0.3891 	   59.8525 	   22.0000 	   38.0000 	   44.8349
    0.4349 	   59.9615 	   22.0000 	   38.0000 	   45.0529
    0.4654 	   60.0765 	   22.0000 	   38.0000 	   45.2829
    0.4349 	   60.1895 	   22.0000 	   38.0000 	   45.5089
    0.5417 	   60.3020 	   22.0000 	   38.0000 	   45.7339
    0.4654 	   60.4095 	   22.0000 	   38.0000 	   45.9489
    0.6027 	   60.5125 	   22.0000 	   38.0000 	   46.1549
    0.5112 	   60.6240 	   22.0000 	   38.0000 	   46.3779
    0.6332 	   60.7340 	   22.0000 	   38.0000 	   46.5980
    0.5875 	   60.8455 	   22.0000 	   38.0000 	   46.8210
    0.4959 	   60.9595 	   22.0000 	   38.0000 	   47.0490
    0.4807 	   61.0690 	   22.0000 	   38.0000 	   47.2680
    0.4959 	   61.1800 	   22.0000 	   38.0000 	   47.4900
    0.6790 	   61.2905 	   22.0000 	   38.0000 	   47.7110
    0.4501 	   61.4045 	   22.0000 	   38.0000 	   47.9390
    0.5112 	   61.5190 	   22.0000 	   38.0000 	   48.1680
    0.3891 	   61.6330 	   22.0000 	   38.0000 	   48.3961
    0.4349 	   61.7460 	   22.0000 	   38.0000 	   48.6221
    0.6332 	   61.8600 	   22.0000 	   38.0000 	   48.8501
    0.6638 	   61.9745 	   22.0000 	   38.0000 	   49.0791
    0.5570 	   62.0865 	   22.0000 	   38.0000 	   49.3031
    0.5264 	   62.1985 	   22.0000 	   38.0000 	   49.5271
    0.4349 	   62.3150 	   22.0000 	   38.0000 	   49.7601
    0.5417 	   62.4300 	   22.0000 	   38.0000 	   49.9902
    0.5112 	   62.5370 	   22.0000 	   38.0000 	   50.2042
    0.5417 	   62.6425 	   22.0000 	   38.0000 	   50.4152
    0.4654 	   62.7525 	   22.0000 	   38.0000 	   50.6352
    0.1755 	   62.8660 	   22.0000 	   38.0000 	   50.8622
    0.6027 	   62.9810 	   22.0000 	   38.0000 	   51.0922
    0.4501 	   63.0955 	   22.0000 	   38.0000 	   51.3212
    0.4349 	   63.2115 	   22.0000 	   38.0000 	   51.5532
    0.1907 	   63.3270 	   22.0000 	   38.0000 	   51.7843
    0.3128 	   63.4425 	   22.0000 	   38.0000 	   52.0153
    0.4959 	   63.5575 	   22.0000 	   38.0000 	   52.2453
    0.4196 	   63.6725 	   22.0000 	   38.0000 	   52.4753
    0.4807 	   63.7895 	   22.0000 	   38.0000 	   52.7093
    0.2213 	   63.9005 	   22.0000 	   38.0000 	   52.9313
    0.4196 	   64.0140 	   22.0000 	   38.0000 	   53.1583
    0.2365 	   64.1325 	   22.0000 	   38.0000 	   53.3953
    0.3433 	   64.2465 	   22.0000 	   38.0000 	   53.6234
    0.5112 	   64.3590 	   22.0000 	   38.0000 	   53.8484
    0.4196 	   64.4685 	   22.0000 	   38.0000 	   54.0674
    0.4959 	   64.5730 	   22.0000 	   38.0000 	   54.2764
    0.4196 	   64.6785 	   22.0000 	   38.0000 	   54.4864
    0.5722 	   64.7930 	   22.0000 	   38.0000 	   54.7154
    0.0992 	   64.9090 	   22.0000 	   38.0000 	   54.9474
    0.4807 	   65.0265 	   22.0000 	   38.0000 	   55.1824
    0.4044 	   65.1430 	   22.0000 	   38.0000 	   55.4155
    0.0992 	   65.2525 	   22.0000 	   38.0000 	   55.6345
    0.6638 	   65.3575 	   22.0000 	   38.0000 	   55.8445
    0.4196 	   65.4675 	   22.0000 	   38.0000 	   56.0645
    0.4654 	   65.5835 	   22.0000 	   38.0000 	   56.2965
    0.4959 	   65.6990 	   22.0000 	   38.0000 	   56.5275
    0.3738 	   65.8140 	   22.0000 	   38.0000 	   56.7575
    0.5112 	   65.9250 	   22.0000 	   38.0000 	   56.9796
    0.5722 	   66.0420 	   22.0000 	   38.0000 	   57.2126
    0.4654 	   66.1515 	   22.0000 	   38.0000 	   57.4326
    0.6027 	   66.2625 	   22.0000 	   38.0000 	   57.6546
    0.1907 	   66.3695 	   22.0000 	   38.0000 	   57.8686
    0.3281 	   66.4810 	   22.0000 	   38.0000 	   58.0916
    0.3891 	   66.5980 	   22.0000 	   38.0000 	   58.3256
    0.3738 	   66.7145 	   22.0000 	   38.0000 	   58.5586
    0.4501 	   66.8290 	   22.0000 	   38.0000 	   58.7877
    0.4654 	   66.9375 	   22.0000 	   38.0000 	   59.0047
    0.3433 	   67.0480 	   22.0000 	   38.0000 	   59.2257
    0.3891 	   67.1635 	   22.0000 	   38.0000 	   59.4567
    0.4501 	   67.2790 	   22.0000 	   38.0000 	   59.6877
    0.3738 	   67.3890 	   22.0000 	   38.0000 	   59.9077
    0.4501 	   67.5055 	   22.0000 	   39.0000 	    0.1407
    0.3281 	   67.6185 	   22.0000 	   39.0000 	    0.3667
    0.2213 	   67.7365 	   22.0000 	   39.0000 	    0.6028
    0.4501 	   67.8610 	   22.0000 	   39.0000 	    0.8518
    0.4807 	   67.9800 	   22.0000 	   39.0000 	    1.0898
    0.4349 	   68.0970 	   22.0000 	   39.0000 	    1.3238
    0.3281 	   68.2145 	   22.0000 	   39.0000 	    1.5588
    0.4044 	   68.3340 	   22.0000 	   39.0000 	    1.7978
    0.3281 	   68.4500 	   22.0000 	   39.0000 	    2.0298
    0.4196 	   68.5675 	   22.0000 	   39.0000 	    2.2649
    0.4501 	   68.6865 	   22.0000 	   39.0000 	    2.5029
    0.2670 	   68.8025 	   22.0000 	   39.0000 	    2.7349
    0.4044 	   68.9175 	   22.0000 	   39.0000 	    2.9649
    0.3738 	   69.0335 	   22.0000 	   39.0000 	    3.1969
    0.4044 	   69.1485 	   22.0000 	   39.0000 	    3.4269
    0.2823 	   69.2685 	   22.0000 	   39.0000 	    3.6669
    0.3586 	   69.3830 	   22.0000 	   39.0000 	    3.8959
    0.2976 	   69.4940 	   22.0000 	   39.0000 	    4.1180
    0.2823 	   69.6025 	   22.0000 	   39.0000 	    4.3350
    0.3128 	   69.7195 	   22.0000 	   39.0000 	    4.5690
    0.3586 	   69.8370 	   22.0000 	   39.0000 	    4.8040
    0.2823 	   69.9570 	   22.0000 	   39.0000 	    5.0440
    0.3281 	   70.0750 	   22.0000 	   39.0000 	    5.2800
    0.3281 	   70.1860 	   22.0000 	   39.0000 	    5.5020
    0.4501 	   70.2980 	   22.0000 	   39.0000 	    5.7261
    0.2060 	   70.4060 	   22.0000 	   39.0000 	    5.9421
    0.3433 	   70.5185 	   22.0000 	   39.0000 	    6.1671
    0.4044 	   70.6285 	   22.0000 	   39.0000 	    6.3871
    0.4501 	   70.7480 	   22.0000 	   39.0000 	    6.6261
    0.5570 	   70.8655 	   22.0000 	   39.0000 	    6.8611
    0.3891 	   70.9825 	   22.0000 	   39.0000 	    7.0951
    0.5112 	   71.1020 	   22.0000 	   39.0000 	    7.3341
    0.3281 	   71.2110 	   22.0000 	   39.0000 	    7.5522
    0.4501 	   71.3185 	   22.0000 	   39.0000 	    7.7672
    0.3586 	   71.4320 	   22.0000 	   39.0000 	    7.9942
    0.2976 	   71.5470 	   22.0000 	   39.0000 	    8.2242
    0.3891 	   71.6585 	   22.0000 	   39.0000 	    8.4472
   -0.0076 	   71.7670 	   22.0000 	   39.0000 	    8.6642
    0.2976 	   71.8905 	   22.0000 	   39.0000 	    8.9112
    0.3891 	   72.0125 	   22.0000 	   39.0000 	    9.1552
    0.3128 	   72.1320 	   22.0000 	   39.0000 	    9.3943
    0.2823 	   72.2515 	   22.0000 	   39.0000 	    9.6333
    0.2976 	   72.3710 	   22.0000 	   39.0000 	    9.8723
    0.2976 	   72.4805 	   22.0000 	   39.0000 	   10.0903
    0.3891 	   72.5915 	   22.0000 	   39.0000 	   10.3133
    0.3891 	   72.7045 	   22.0000 	   39.0000 	   10.5393
    0.2976 	   72.8190 	   22.0000 	   39.0000 	   10.7683
    0.4349 	   72.9360 	   22.0000 	   39.0000 	   11.0024
    0.2976 	   73.0585 	   22.0000 	   39.0000 	   11.2474
    0.0229 	   73.1775 	   22.0000 	   39.0000 	   11.4854
    0.2213 	   73.2925 	   22.0000 	   39.0000 	   11.7154
    0.2823 	   73.4135 	   22.0000 	   39.0000 	   11.9564
    0.4044 	   73.5330 	   22.0000 	   39.0000 	   12.1954
    0.2823 	   73.6450 	   22.0000 	   39.0000 	   12.4194
    0.2213 	   73.7535 	   22.0000 	   39.0000 	   12.6364
    0.3738 	   73.8640 	   22.0000 	   39.0000 	   12.8575
    0.3433 	   73.9770 	   22.0000 	   39.0000 	   13.0835
    0.2976 	   74.0890 	   22.0000 	   39.0000 	   13.3075
    0.3281 	   74.2015 	   22.0000 	   39.0000 	   13.5325
    0.3586 	   74.3255 	   22.0000 	   39.0000 	   13.7805
    0.2670 	   74.4460 	   22.0000 	   39.0000 	   14.0215
    0.2823 	   74.5660 	   22.0000 	   39.0000 	   14.2615
    0.3281 	   74.6855 	   22.0000 	   39.0000 	   14.5006
    0.2976 	   74.8070 	   22.0000 	   39.0000 	   14.7436
    0.0687 	   74.9190 	   22.0000 	   39.0000 	   14.9676
    0.3128 	   75.0370 	   22.0000 	   39.0000 	   15.2036
    0.3128 	   75.1500 	   22.0000 	   39.0000 	   15.4296
    0.3891 	   75.2595 	   22.0000 	   39.0000 	   15.6486
    0.2365 	   75.3745 	   22.0000 	   39.0000 	   15.8786
    0.2823 	   75.4940 	   22.0000 	   39.0000 	   16.1176
    0.2670 	   75.6160 	   22.0000 	   39.0000 	   16.3617
    0.2823 	   75.7350 	   22.0000 	   39.0000 	   16.5997
    0.2365 	   75.8570 	   22.0000 	   39.0000 	   16.8437
    0.2823 	   75.9725 	   22.0000 	   39.0000 	   17.0747
    0.3433 	   76.0930 	   22.0000 	   39.0000 	   17.3157
    0.2670 	   76.2115 	   22.0000 	   39.0000 	   17.5527
    0.3586 	   76.3305 	   22.0000 	   39.0000 	   17.7907
    0.1602 	   76.4525 	   22.0000 	   39.0000 	   18.0348
    0.3128 	   76.5670 	   22.0000 	   39.0000 	   18.2638
    0.2976 	   76.6885 	   22.0000 	   39.0000 	   18.5068
    0.2976 	   76.8125 	   22.0000 	   39.0000 	   18.7548
    0.2518 	   76.9285 	   22.0000 	   39.0000 	   18.9868
    0.2518 	   77.0520 	   22.0000 	   39.0000 	   19.2338
    0.1907 	   77.1740 	   22.0000 	   39.0000 	   19.4778
    0.3128 	   77.2965 	   22.0000 	   39.0000 	   19.7229
    0.2823 	   77.4155 	   22.0000 	   39.0000 	   19.9609
    0.2976 	   77.5330 	   22.0000 	   39.0000 	   20.1959
    0.2060 	   77.6525 	   22.0000 	   39.0000 	   20.4349
    0.3586 	   77.7675 	   22.0000 	   39.0000 	   20.6649
    0.0076 	   77.8815 	   22.0000 	   39.0000 	   20.8929
    0.3128 	   78.0035 	   22.0000 	   39.0000 	   21.1369
    0.3738 	   78.1290 	   22.0000 	   39.0000 	   21.3879
    0.1755 	   78.2515 	   22.0000 	   39.0000 	   21.6330
    0.4349 	   78.3740 	   22.0000 	   39.0000 	   21.8780
    0.2976 	   78.4890 	   22.0000 	   39.0000 	   22.1080
    0.2518 	   78.6025 	   22.0000 	   39.0000 	   22.3350
    0.2060 	   78.7265 	   22.0000 	   39.0000 	   22.5830
    0.4044 	   78.8465 	   22.0000 	   39.0000 	   22.8230
    0.2518 	   78.9685 	   22.0000 	   39.0000 	   23.0670
    0.2365 	   79.0885 	   22.0000 	   39.0000 	   23.3071
    0.1755 	   79.2025 	   22.0000 	   39.0000 	   23.5351
    0.2976 	   79.3165 	   22.0000 	   39.0000 	   23.7631
    0.3128 	   79.4320 	   22.0000 	   39.0000 	   23.9941
    0.3433 	   79.5440 	   22.0000 	   39.0000 	   24.2181
    0.3128 	   79.6600 	   22.0000 	   39.0000 	   24.4501
    0.2670 	   79.7895 	   22.0000 	   39.0000 	   24.7091
    0.2060 	   79.9035 	   22.0000 	   39.0000 	   24.9372
    0.1907 	   80.0280 	   22.0000 	   39.0000 	   25.1862
    0.1755 	   80.1520 	   22.0000 	   39.0000 	   25.4342
    0.3281 	   80.2670 	   22.0000 	   39.0000 	   25.6642
    0.1755 	   80.2905 	   22.0000 	   39.0000 	   25.7112