File: instron/independence/relaxation/bad_l15w3_30_60_pre10/b_l15w3_20_60_pre10_step.txt
Thayer School of Engineering        Instron 4442 Mechanical Testing System
7/5/2018 6:51:45 AM

  Force (N)	Extension (mm)	Not Used	Not Used	Not Used	     Hour	    Minute	    Second
    1.0452 	    1.0240 	    6.0000 	   52.0000 	    9.1971
    0.9842 	    1.2280 	    6.0000 	   52.0000 	    9.4011
    1.0452 	    1.3920 	    6.0000 	   52.0000 	    9.5652
    0.7858 	    1.6050 	    6.0000 	   52.0000 	    9.7782
    0.8774 	    1.8110 	    6.0000 	   52.0000 	    9.9842
    0.8621 	    1.9960 	    6.0000 	   52.0000 	   10.1692
    0.8774 	    2.1990 	    6.0000 	   52.0000 	   10.3722
    0.8927 	    2.3850 	    6.0000 	   52.0000 	   10.5582
    0.9842 	    2.5710 	    6.0000 	   52.0000 	   10.7442
    0.9537 	    2.7380 	    6.0000 	   52.0000 	   10.9112
    0.9537 	    2.9020 	    6.0000 	   52.0000 	   11.0752
    1.0758 	    3.0820 	    6.0000 	   52.0000 	   11.2552
    0.9689 	    3.2480 	    6.0000 	   52.0000 	   11.4213
    0.8164 	    3.3640 	    6.0000 	   52.0000 	   11.5373
    0.8774 	    3.4900 	    6.0000 	   52.0000 	   11.6633
    1.0605 	    3.6110 	    6.0000 	   52.0000 	   11.7843
    1.0300 	    3.7550 	    6.0000 	   52.0000 	   11.9283
    0.9079 	    3.8890 	    6.0000 	   52.0000 	   12.0623
    0.9232 	    4.0030 	    6.0000 	   52.0000 	   12.1763
    1.0300 	    4.1320 	    6.0000 	   52.0000 	   12.3053
    0.9537 	    4.2580 	    6.0000 	   52.0000 	   12.4313
    0.9232 	    4.3750 	    6.0000 	   52.0000 	   12.5483
    1.0300 	    4.4830 	    6.0000 	   52.0000 	   12.6563
    0.8927 	    4.5930 	    6.0000 	   52.0000 	   12.7663
    0.9079 	    4.7140 	    6.0000 	   52.0000 	   12.8873
    1.0605 	    4.8190 	    6.0000 	   52.0000 	   12.9923
    1.0452 	    4.9390 	    6.0000 	   52.0000 	   13.1124
    0.9537 	    5.0690 	    6.0000 	   52.0000 	   13.2424
    0.9842 	    5.1940 	    6.0000 	   52.0000 	   13.3674
    1.0910 	    5.3210 	    6.0000 	   52.0000 	   13.4944
    1.0300 	    5.4470 	    6.0000 	   52.0000 	   13.6204
    1.1063 	    5.5700 	    6.0000 	   52.0000 	   13.7434
    1.0300 	    5.6790 	    6.0000 	   52.0000 	   13.8524
    1.0605 	    5.7860 	    6.0000 	   52.0000 	   13.9594
    1.1368 	    5.8960 	    6.0000 	   52.0000 	   14.0694
    1.0147 	    6.0160 	    6.0000 	   52.0000 	   14.1894
    1.1215 	    6.1390 	    6.0000 	   52.0000 	   14.3124
    1.0758 	    6.2660 	    6.0000 	   52.0000 	   14.4394
    1.1978 	    6.3870 	    6.0000 	   52.0000 	   14.5604
    1.0452 	    6.5080 	    6.0000 	   52.0000 	   14.6814
    1.1826 	    6.6270 	    6.0000 	   52.0000 	   14.8005
    1.2436 	    6.7360 	    6.0000 	   52.0000 	   14.9095
    0.9842 	    6.8510 	    6.0000 	   52.0000 	   15.0245
    1.1215 	    6.9790 	    6.0000 	   52.0000 	   15.1525
    1.0452 	    7.1030 	    6.0000 	   52.0000 	   15.2765
    1.1368 	    7.2240 	    6.0000 	   52.0000 	   15.3975
    1.0452 	    7.3530 	    6.0000 	   52.0000 	   15.5265
    0.9232 	    7.4780 	    6.0000 	   52.0000 	   15.6515
    1.1215 	    7.5940 	    6.0000 	   52.0000 	   15.7675
    0.9995 	    7.7020 	    6.0000 	   52.0000 	   15.8755
    1.0910 	    7.8080 	    6.0000 	   52.0000 	   15.9815
    1.1215 	    7.9190 	    6.0000 	   52.0000 	   16.0925
    1.1063 	    8.0270 	    6.0000 	   52.0000 	   16.2005
    1.1368 	    8.1530 	    6.0000 	   52.0000 	   16.3265
    1.1215 	    8.2750 	    6.0000 	   52.0000 	   16.4485
    1.1215 	    8.3990 	    6.0000 	   52.0000 	   16.5726
    1.0758 	    8.5230 	    6.0000 	   52.0000 	   16.6966
    1.2894 	    8.6420 	    6.0000 	   52.0000 	   16.8146
    1.1673 	    8.7530 	    6.0000 	   52.0000 	   16.9256
    1.0758 	    8.8580 	    6.0000 	   52.0000 	   17.0306
    1.1521 	    8.9640 	    6.0000 	   52.0000 	   17.1366
    1.1215 	    9.0800 	    6.0000 	   52.0000 	   17.2526
    1.1521 	    9.2060 	    6.0000 	   52.0000 	   17.3786
    1.1215 	    9.3330 	    6.0000 	   52.0000 	   17.5056
    1.2284 	    9.4540 	    6.0000 	   52.0000 	   17.6266
    1.1978 	    9.5770 	    6.0000 	   52.0000 	   17.7496
    1.2131 	    9.6930 	    6.0000 	   52.0000 	   17.8656
    1.2894 	    9.8010 	    6.0000 	   52.0000 	   17.9736
    1.1826 	    9.9120 	    6.0000 	   52.0000 	   18.0846
    1.2436 	   10.0210 	    6.0000 	   52.0000 	   18.1936
    1.3046 	   10.1300 	    6.0000 	   52.0000 	   18.3027
    1.2894 	   10.2500 	    6.0000 	   52.0000 	   18.4227
    1.1978 	   10.4070 	    6.0000 	   52.0000 	   18.5797
    1.2284 	   10.5250 	    6.0000 	   52.0000 	   18.6967
    1.3504 	   10.6350 	    6.0000 	   52.0000 	   18.8077
    1.1978 	   10.7480 	    6.0000 	   52.0000 	   18.9207
    1.3352 	   10.8600 	    6.0000 	   52.0000 	   19.0327
    1.3504 	   10.9820 	    6.0000 	   52.0000 	   19.1547
    1.1215 	   11.1080 	    6.0000 	   52.0000 	   19.2807
    1.3199 	   11.2390 	    6.0000 	   52.0000 	   19.4117
    1.2131 	   11.3590 	    6.0000 	   52.0000 	   19.5317
    1.2131 	   11.4720 	    6.0000 	   52.0000 	   19.6447
    1.3962 	   11.5860 	    6.0000 	   52.0000 	   19.7587
    1.3962 	   11.7010 	    6.0000 	   52.0000 	   19.8737
    1.3809 	   11.8190 	    6.0000 	   52.0000 	   19.9917
    1.3657 	   11.9300 	    6.0000 	   52.0000 	   20.1028
    1.2894 	   12.0540 	    6.0000 	   52.0000 	   20.2268
    1.3962 	   12.1840 	    6.0000 	   52.0000 	   20.3568
    1.3046 	   12.3040 	    6.0000 	   52.0000 	   20.4768
    1.4725 	   12.4140 	    6.0000 	   52.0000 	   20.5868
    1.3657 	   12.5330 	    6.0000 	   52.0000 	   20.7058
    1.4878 	   12.6520 	    6.0000 	   52.0000 	   20.8248
    1.4115 	   12.7700 	    6.0000 	   52.0000 	   20.9428
    1.3809 	   12.8870 	    6.0000 	   52.0000 	   21.0598
    1.4420 	   13.0010 	    6.0000 	   52.0000 	   21.1738
    1.3657 	   13.1260 	    6.0000 	   52.0000 	   21.2988
    1.4115 	   13.2570 	    6.0000 	   52.0000 	   21.4298
    1.4115 	   13.3900 	    6.0000 	   52.0000 	   21.5628
    1.5030 	   13.5260 	    6.0000 	   52.0000 	   21.6988
    1.5030 	   13.6510 	    6.0000 	   52.0000 	   21.8239
    1.4572 	   13.7710 	    6.0000 	   52.0000 	   21.9439
    1.4267 	   13.8860 	    6.0000 	   52.0000 	   22.0589
    1.3352 	   14.0010 	    6.0000 	   52.0000 	   22.1739
    1.4725 	   14.1310 	    6.0000 	   52.0000 	   22.3039
    1.5030 	   14.2480 	    6.0000 	   52.0000 	   22.4209
    1.5183 	   14.3630 	    6.0000 	   52.0000 	   22.5359
    1.4267 	   14.4740 	    6.0000 	   52.0000 	   22.6469
    1.5640 	   14.5920 	    6.0000 	   52.0000 	   22.7649
    1.3504 	   14.7030 	    6.0000 	   52.0000 	   22.8759
    1.6403 	   14.8210 	    6.0000 	   52.0000 	   22.9939
    1.5030 	   14.9390 	    6.0000 	   52.0000 	   23.1119
    1.5335 	   15.0610 	    6.0000 	   52.0000 	   23.2339
    1.5946 	   15.1780 	    6.0000 	   52.0000 	   23.3509
    1.5030 	   15.3080 	    6.0000 	   52.0000 	   23.4809
    1.5946 	   15.4430 	    6.0000 	   52.0000 	   23.6160
    1.5640 	   15.5810 	    6.0000 	   52.0000 	   23.7540
    1.5640 	   15.6990 	    6.0000 	   52.0000 	   23.8720
    1.5946 	   15.8170 	    6.0000 	   52.0000 	   23.9900
    1.5946 	   15.9260 	    6.0000 	   52.0000 	   24.0990
    1.5183 	   16.0480 	    6.0000 	   52.0000 	   24.2210
    1.6403 	   16.1680 	    6.0000 	   52.0000 	   24.3410
    1.5335 	   16.2900 	    6.0000 	   52.0000 	   24.4630
    1.8540 	   16.4530 	    6.0000 	   52.0000 	   24.6260
    1.7014 	   16.5810 	    6.0000 	   52.0000 	   24.7540
    1.5488 	   16.7020 	    6.0000 	   52.0000 	   24.8750
    1.6251 	   16.8190 	    6.0000 	   52.0000 	   24.9920
    1.6556 	   16.9290 	    6.0000 	   52.0000 	   25.1020
    1.5793 	   17.0420 	    6.0000 	   52.0000 	   25.2150
    1.7319 	   17.1670 	    6.0000 	   52.0000 	   25.3401
    1.6556 	   17.2940 	    6.0000 	   52.0000 	   25.4671
    1.9303 	   17.4200 	    6.0000 	   52.0000 	   25.5931
    1.6709 	   17.5380 	    6.0000 	   52.0000 	   25.7111
    1.7166 	   17.6580 	    6.0000 	   52.0000 	   25.8311
    1.7166 	   17.7720 	    6.0000 	   52.0000 	   25.9451
    1.8845 	   17.8850 	    6.0000 	   52.0000 	   26.0581
    1.7319 	   18.0050 	    6.0000 	   52.0000 	   26.1771
    1.8540 	   18.1210 	    6.0000 	   52.0000 	   26.2941
    1.6251 	   18.2360 	    6.0000 	   52.0000 	   26.4091
    1.8082 	   18.3570 	    6.0000 	   52.0000 	   26.5301
    1.7777 	   18.4910 	    6.0000 	   52.0000 	   26.6641
    1.8387 	   18.6270 	    6.0000 	   52.0000 	   26.8001
    1.7777 	   18.7490 	    6.0000 	   52.0000 	   26.9221
    1.9608 	   18.8660 	    6.0000 	   52.0000 	   27.0392
    1.7319 	   18.9880 	    6.0000 	   52.0000 	   27.1612
    1.7624 	   19.1260 	    6.0000 	   52.0000 	   27.2992
    1.8997 	   19.2590 	    6.0000 	   52.0000 	   27.4322
    1.8387 	   19.3920 	    6.0000 	   52.0000 	   27.5652
    1.8997 	   19.5220 	    6.0000 	   52.0000 	   27.6952
    1.6403 	   19.6540 	    6.0000 	   52.0000 	   27.8272
    2.0371 	   19.7730 	    6.0000 	   52.0000 	   27.9462
    2.0523 	   19.8880 	    6.0000 	   52.0000 	   28.0612
    1.8997 	   20.0070 	    6.0000 	   52.0000 	   28.1802
    1.9150 	   20.1400 	    6.0000 	   52.0000 	   28.3132
    1.9455 	   20.2750 	    6.0000 	   52.0000 	   28.4482
    1.9608 	   20.4100 	    6.0000 	   52.0000 	   28.5832
    1.9913 	   20.5440 	    6.0000 	   52.0000 	   28.7172
    1.9913 	   20.6810 	    6.0000 	   52.0000 	   28.8543
    2.0676 	   20.8030 	    6.0000 	   52.0000 	   28.9763
    2.1439 	   20.9230 	    6.0000 	   52.0000 	   29.0963
    1.8082 	   21.0590 	    6.0000 	   52.0000 	   29.2323
    1.8997 	   21.1920 	    6.0000 	   52.0000 	   29.3643
    2.1134 	   21.3250 	    6.0000 	   52.0000 	   29.4983
    2.2049 	   21.4560 	    6.0000 	   52.0000 	   29.6293
    2.0523 	   21.5930 	    6.0000 	   52.0000 	   29.7663
    2.1286 	   21.7220 	    6.0000 	   52.0000 	   29.8953
    2.1134 	   21.8460 	    6.0000 	   52.0000 	   30.0193
    2.0676 	   21.9630 	    6.0000 	   52.0000 	   30.1363
    2.1286 	   22.0920 	    6.0000 	   52.0000 	   30.2653
    1.9455 	   22.2260 	    6.0000 	   52.0000 	   30.3993
    1.9455 	   22.3580 	    6.0000 	   52.0000 	   30.5314
    1.9150 	   22.4930 	    6.0000 	   52.0000 	   30.6664
    1.7929 	   22.6320 	    6.0000 	   52.0000 	   30.8054
    2.0829 	   22.7570 	    6.0000 	   52.0000 	   30.9304
    2.0981 	   22.8770 	    6.0000 	   52.0000 	   31.0504
    1.8540 	   22.9970 	    6.0000 	   52.0000 	   31.1704
    2.0981 	   23.1350 	    6.0000 	   52.0000 	   31.3084
    1.9760 	   23.2690 	    6.0000 	   52.0000 	   31.4424
    1.9760 	   23.4030 	    6.0000 	   52.0000 	   31.5764
    2.0371 	   23.5370 	    6.0000 	   52.0000 	   31.7104
    1.9608 	   23.6720 	    6.0000 	   52.0000 	   31.8454
    1.9760 	   23.7950 	    6.0000 	   52.0000 	   31.9684
    2.0523 	   23.9130 	    6.0000 	   52.0000 	   32.0864
    2.0523 	   24.0310 	    6.0000 	   52.0000 	   32.2044
    1.7472 	   24.1540 	    6.0000 	   52.0000 	   32.3275
    2.0218 	   24.2910 	    6.0000 	   52.0000 	   32.4645
    2.1286 	   24.4280 	    6.0000 	   52.0000 	   32.6015
    1.9150 	   24.5610 	    6.0000 	   52.0000 	   32.7345
    2.0829 	   24.6970 	    6.0000 	   52.0000 	   32.8705
    2.0218 	   24.8190 	    6.0000 	   52.0000 	   32.9925
    1.9760 	   24.9390 	    6.0000 	   52.0000 	   33.1125
    1.9303 	   25.0720 	    6.0000 	   52.0000 	   33.2455
    1.6556 	   25.2100 	    6.0000 	   52.0000 	   33.3835
    2.1744 	   25.3450 	    6.0000 	   52.0000 	   33.5185
    2.1439 	   25.4790 	    6.0000 	   52.0000 	   33.6525
    1.8997 	   25.6150 	    6.0000 	   52.0000 	   33.7885
    2.0371 	   25.7510 	    6.0000 	   52.0000 	   33.9245
    1.8997 	   25.8710 	    6.0000 	   52.0000 	   34.0446
    1.9608 	   25.9870 	    6.0000 	   52.0000 	   34.1606
    2.0676 	   26.1230 	    6.0000 	   52.0000 	   34.2956
    1.8082 	   26.2420 	    6.0000 	   52.0000 	   34.4146
    1.9303 	   26.3620 	    6.0000 	   52.0000 	   34.5346
    1.9608 	   26.4870 	    6.0000 	   52.0000 	   34.6596
    2.0371 	   26.6150 	    6.0000 	   52.0000 	   34.7876
    1.9150 	   26.7470 	    6.0000 	   52.0000 	   34.9196
    2.0371 	   26.8720 	    6.0000 	   52.0000 	   35.0446
    2.0829 	   26.9900 	    6.0000 	   52.0000 	   35.1626
    2.0066 	   27.1290 	    6.0000 	   52.0000 	   35.3016
    2.0066 	   27.2710 	    6.0000 	   52.0000 	   35.4436
    1.9150 	   27.4070 	    6.0000 	   52.0000 	   35.5796
    2.0371 	   27.5440 	    6.0000 	   52.0000 	   35.7166
    2.1897 	   27.6810 	    6.0000 	   52.0000 	   35.8537
    2.0523 	   27.8100 	    6.0000 	   52.0000 	   35.9827
    1.9303 	   27.9330 	    6.0000 	   52.0000 	   36.1057
    2.0371 	   28.0660 	    6.0000 	   52.0000 	   36.2387
    1.9760 	   28.2090 	    6.0000 	   52.0000 	   36.3817
    2.0829 	   28.3470 	    6.0000 	   52.0000 	   36.5197
    2.0066 	   28.4830 	    6.0000 	   52.0000 	   36.6557
    2.1439 	   28.6250 	    6.0000 	   52.0000 	   36.7977
    1.9150 	   28.7560 	    6.0000 	   52.0000 	   36.9287
    1.9913 	   28.8840 	    6.0000 	   52.0000 	   37.0567
    1.9608 	   29.0030 	    6.0000 	   52.0000 	   37.1757
    1.9608 	   29.1430 	    6.0000 	   52.0000 	   37.3157
    2.0371 	   29.2830 	    6.0000 	   52.0000 	   37.4557
    1.9150 	   29.4200 	    6.0000 	   52.0000 	   37.5928
    1.9150 	   29.5560 	    6.0000 	   52.0000 	   37.7288
    1.9150 	   29.6980 	    6.0000 	   52.0000 	   37.8708
    1.9760 	   29.8300 	    6.0000 	   52.0000 	   38.0028
    1.9608 	   29.9550 	    6.0000 	   52.0000 	   38.1278
    2.0066 	   30.0950 	    6.0000 	   52.0000 	   38.2678
    1.9913 	   30.2320 	    6.0000 	   52.0000 	   38.4048
    1.7929 	   30.3750 	    6.0000 	   52.0000 	   38.5478
    1.9303 	   30.5130 	    6.0000 	   52.0000 	   38.6858
    1.9760 	   30.6610 	    6.0000 	   52.0000 	   38.8338
    1.9303 	   30.7950 	    6.0000 	   52.0000 	   38.9678
    1.8997 	   30.9210 	    6.0000 	   52.0000 	   39.0938
    1.8845 	   31.0430 	    6.0000 	   52.0000 	   39.2158
    1.9760 	   31.1810 	    6.0000 	   52.0000 	   39.3539
    2.0829 	   31.3180 	    6.0000 	   52.0000 	   39.4909
    1.7472 	   31.4540 	    6.0000 	   52.0000 	   39.6269
    2.0981 	   31.5950 	    6.0000 	   52.0000 	   39.7679
    1.9760 	   31.7310 	    6.0000 	   52.0000 	   39.9039
    1.8082 	   31.8630 	    6.0000 	   52.0000 	   40.0359
    2.1286 	   31.9870 	    6.0000 	   52.0000 	   40.1599
    1.9913 	   32.1120 	    6.0000 	   52.0000 	   40.2849
    1.9760 	   32.2420 	    6.0000 	   52.0000 	   40.4149
    1.9913 	   32.3820 	    6.0000 	   52.0000 	   40.5549
    1.9608 	   32.5240 	    6.0000 	   52.0000 	   40.6969
    1.9455 	   32.6650 	    6.0000 	   52.0000 	   40.8379
    1.7472 	   32.8010 	    6.0000 	   52.0000 	   40.9739
    1.8387 	   32.9330 	    6.0000 	   52.0000 	   41.1060
    1.9913 	   33.0540 	    6.0000 	   52.0000 	   41.2270
    1.9608 	   33.1840 	    6.0000 	   52.0000 	   41.3570
    2.0218 	   33.3090 	    6.0000 	   52.0000 	   41.4820
    1.8540 	   33.4470 	    6.0000 	   52.0000 	   41.6200
    2.1592 	   33.5870 	    6.0000 	   52.0000 	   41.7600
    1.8082 	   33.7260 	    6.0000 	   52.0000 	   41.8990
    1.9608 	   33.8560 	    6.0000 	   52.0000 	   42.0290
    1.9303 	   33.9870 	    6.0000 	   52.0000 	   42.1600
    1.8540 	   34.1270 	    6.0000 	   52.0000 	   42.3000
    1.8692 	   34.2670 	    6.0000 	   52.0000 	   42.4400
    1.7777 	   34.4100 	    6.0000 	   52.0000 	   42.5830
    1.9455 	   34.5410 	    6.0000 	   52.0000 	   42.7140
    1.8845 	   34.6710 	    6.0000 	   52.0000 	   42.8441
    1.8845 	   34.8050 	    6.0000 	   52.0000 	   42.9781
    1.8082 	   34.9410 	    6.0000 	   52.0000 	   43.1141
    1.9760 	   35.0690 	    6.0000 	   52.0000 	   43.2421
    1.9150 	   35.2060 	    6.0000 	   52.0000 	   43.3791
    1.9913 	   35.3480 	    6.0000 	   52.0000 	   43.5211
    1.6556 	   35.4930 	    6.0000 	   52.0000 	   43.6661
    1.8387 	   35.6380 	    6.0000 	   52.0000 	   43.8111
    1.9150 	   35.7750 	    6.0000 	   52.0000 	   43.9481
    1.8997 	   35.9090 	    6.0000 	   52.0000 	   44.0821
    2.0523 	   36.0350 	    6.0000 	   52.0000 	   44.2081
    1.9150 	   36.1840 	    6.0000 	   52.0000 	   44.3571
    1.8997 	   36.3310 	    6.0000 	   52.0000 	   44.5042
    1.7777 	   36.4710 	    6.0000 	   52.0000 	   44.6442
    1.8997 	   36.6100 	    6.0000 	   52.0000 	   44.7832
    1.8387 	   36.7470 	    6.0000 	   52.0000 	   44.9202
    1.8845 	   36.8830 	    6.0000 	   52.0000 	   45.0562
    1.8692 	   37.0110 	    6.0000 	   52.0000 	   45.1842
    1.9455 	   37.1570 	    6.0000 	   52.0000 	   45.3302
    1.8845 	   37.3020 	    6.0000 	   52.0000 	   45.4752
    1.8997 	   37.4450 	    6.0000 	   52.0000 	   45.6182
    1.8997 	   37.5860 	    6.0000 	   52.0000 	   45.7592
    2.0523 	   37.7300 	    6.0000 	   52.0000 	   45.9032
    1.8997 	   37.8600 	    6.0000 	   52.0000 	   46.0332
    1.8540 	   37.9950 	    6.0000 	   52.0000 	   46.1682
    1.8845 	   38.1360 	    6.0000 	   52.0000 	   46.3093
    2.1286 	   38.2820 	    6.0000 	   52.0000 	   46.4553
    1.7929 	   38.4230 	    6.0000 	   52.0000 	   46.5963
    1.9608 	   38.5690 	    6.0000 	   52.0000 	   46.7423
    1.8845 	   38.7130 	    6.0000 	   52.0000 	   46.8863
    1.9760 	   38.8510 	    6.0000 	   52.0000 	   47.0243
    2.0066 	   38.9850 	    6.0000 	   52.0000 	   47.1583
    1.9150 	   39.1190 	    6.0000 	   52.0000 	   47.2923
    1.9913 	   39.2630 	    6.0000 	   52.0000 	   47.4363
    1.7624 	   39.4060 	    6.0000 	   52.0000 	   47.5793
    1.9303 	   39.5510 	    6.0000 	   52.0000 	   47.7243
    1.8540 	   39.6990 	    6.0000 	   52.0000 	   47.8723
    1.9303 	   39.8360 	    6.0000 	   52.0000 	   48.0093
    1.9455 	   39.9690 	    6.0000 	   52.0000 	   48.1424
    1.8997 	   40.1010 	    6.0000 	   52.0000 	   48.2744
    1.9303 	   40.2450 	    6.0000 	   52.0000 	   48.4184
    1.9913 	   40.3900 	    6.0000 	   52.0000 	   48.5634
    1.8997 	   40.5410 	    6.0000 	   52.0000 	   48.7144
    2.0218 	   40.6830 	    6.0000 	   52.0000 	   48.8564
    1.8540 	   40.8280 	    6.0000 	   52.0000 	   49.0014
    2.0218 	   40.9640 	    6.0000 	   52.0000 	   49.1374
    2.1439 	   41.0990 	    6.0000 	   52.0000 	   49.2724
    1.9303 	   41.2410 	    6.0000 	   52.0000 	   49.4144
    1.8845 	   41.3910 	    6.0000 	   52.0000 	   49.5644
    1.8997 	   41.5360 	    6.0000 	   52.0000 	   49.7094
    2.0218 	   41.6800 	    6.0000 	   52.0000 	   49.8535
    2.0371 	   41.8240 	    6.0000 	   52.0000 	   49.9975
    2.0981 	   41.9630 	    6.0000 	   52.0000 	   50.1365
    1.9455 	   42.0960 	    6.0000 	   52.0000 	   50.2695
    1.9303 	   42.2290 	    6.0000 	   52.0000 	   50.4025
    2.0371 	   42.3730 	    6.0000 	   52.0000 	   50.5465
    1.8845 	   42.5230 	    6.0000 	   52.0000 	   50.6965
    1.9760 	   42.6720 	    6.0000 	   52.0000 	   50.8455
    1.9760 	   42.8160 	    6.0000 	   52.0000 	   50.9895
    1.9913 	   42.9550 	    6.0000 	   52.0000 	   51.1285
    1.9608 	   43.0890 	    6.0000 	   52.0000 	   51.2625
    1.9455 	   43.2260 	    6.0000 	   52.0000 	   51.3995
    2.0066 	   43.3680 	    6.0000 	   52.0000 	   51.5416
    1.9913 	   43.5040 	    6.0000 	   52.0000 	   51.6776
    2.0066 	   43.6510 	    6.0000 	   52.0000 	   51.8236
    2.0523 	   43.7960 	    6.0000 	   52.0000 	   51.9686
    1.8997 	   43.9390 	    6.0000 	   52.0000 	   52.1116
    1.8997 	   44.0790 	    6.0000 	   52.0000 	   52.2516
    1.8997 	   44.2200 	    6.0000 	   52.0000 	   52.3926
    1.7929 	   44.3680 	    6.0000 	   52.0000 	   52.5406
    1.9760 	   44.5210 	    6.0000 	   52.0000 	   52.6936
    1.9455 	   44.6690 	    6.0000 	   52.0000 	   52.8416
    1.8997 	   44.8170 	    6.0000 	   52.0000 	   52.9896
    1.9303 	   44.9640 	    6.0000 	   52.0000 	   53.1366
    1.7777 	   45.1000 	    6.0000 	   52.0000 	   53.2727
    1.8692 	   45.2360 	    6.0000 	   52.0000 	   53.4087
    1.9913 	   45.3700 	    6.0000 	   52.0000 	   53.5427
    1.8997 	   45.5120 	    6.0000 	   52.0000 	   53.6847
    1.8387 	   45.6660 	    6.0000 	   52.0000 	   53.8387
    2.0066 	   45.8150 	    6.0000 	   52.0000 	   53.9877
    1.7166 	   45.9550 	    6.0000 	   52.0000 	   54.1277
    1.8997 	   46.0920 	    6.0000 	   52.0000 	   54.2647
    2.0066 	   46.2250 	    6.0000 	   52.0000 	   54.3977
    1.9455 	   46.3740 	    6.0000 	   52.0000 	   54.5467
    1.9150 	   46.5260 	    6.0000 	   52.0000 	   54.6987
    1.8997 	   46.6720 	    6.0000 	   52.0000 	   54.8447
    1.8692 	   46.8230 	    6.0000 	   52.0000 	   54.9958
    1.8540 	   46.9640 	    6.0000 	   52.0000 	   55.1368
    1.9455 	   47.1010 	    6.0000 	   52.0000 	   55.2738
    1.7777 	   47.2370 	    6.0000 	   52.0000 	   55.4098
    2.0218 	   47.3810 	    6.0000 	   52.0000 	   55.5538
    2.0218 	   47.5280 	    6.0000 	   52.0000 	   55.7008
    1.8540 	   47.6770 	    6.0000 	   52.0000 	   55.8498
    1.8082 	   47.8250 	    6.0000 	   52.0000 	   55.9978
    1.8540 	   47.9660 	    6.0000 	   52.0000 	   56.1388
    1.8997 	   48.1060 	    6.0000 	   52.0000 	   56.2788
    2.1286 	   48.2390 	    6.0000 	   52.0000 	   56.4118
    2.0371 	   48.3880 	    6.0000 	   52.0000 	   56.5608
    1.9913 	   48.5370 	    6.0000 	   52.0000 	   56.7098
    1.9455 	   48.6840 	    6.0000 	   52.0000 	   56.8569
    1.8692 	   48.8290 	    6.0000 	   52.0000 	   57.0019
    2.0218 	   48.9730 	    6.0000 	   52.0000 	   57.1459
    1.8082 	   49.1130 	    6.0000 	   52.0000 	   57.2859
    2.0066 	   49.2630 	    6.0000 	   52.0000 	   57.4359
    1.9608 	   49.4150 	    6.0000 	   52.0000 	   57.5879
    1.7777 	   49.5680 	    6.0000 	   52.0000 	   57.7409
    1.8997 	   49.7220 	    6.0000 	   52.0000 	   57.8949
    1.9150 	   49.8700 	    6.0000 	   52.0000 	   58.0429
    1.9455 	   50.0140 	    6.0000 	   52.0000 	   58.1869
    1.9913 	   50.1650 	    6.0000 	   52.0000 	   58.3379
    1.9455 	   50.3250 	    6.0000 	   52.0000 	   58.4980
    1.8235 	   50.4730 	    6.0000 	   52.0000 	   58.6460
    1.7929 	   50.6290 	    6.0000 	   52.0000 	   58.8020
    1.8082 	   50.7860 	    6.0000 	   52.0000 	   58.9590
    1.8235 	   50.9330 	    6.0000 	   52.0000 	   59.1060
    2.0066 	   51.0820 	    6.0000 	   52.0000 	   59.2550
    1.8845 	   51.2310 	    6.0000 	   52.0000 	   59.4030
    1.8235 	   51.3840 	    6.0000 	   52.0000 	   59.5570
    1.8845 	   51.5410 	    6.0000 	   52.0000 	   59.7140
    2.0981 	   51.6920 	    6.0000 	   52.0000 	   59.8650
    1.7777 	   51.8440 	    6.0000 	   53.0000 	    0.0170
    1.9455 	   51.9920 	    6.0000 	   53.0000 	    0.1650
    1.7929 	   52.1320 	    6.0000 	   53.0000 	    0.3051
    1.9760 	   52.2830 	    6.0000 	   53.0000 	    0.4561
    1.7624 	   52.4380 	    6.0000 	   53.0000 	    0.6111
    2.0218 	   52.5940 	    6.0000 	   53.0000 	    0.7671
    1.9455 	   52.7450 	    6.0000 	   53.0000 	    0.9181
    1.8997 	   52.8940 	    6.0000 	   53.0000 	    1.0671
    1.9455 	   53.0360 	    6.0000 	   53.0000 	    1.2091
    1.8235 	   53.1750 	    6.0000 	   53.0000 	    1.3481
    2.0066 	   53.3220 	    6.0000 	   53.0000 	    1.4951
    1.9303 	   53.4780 	    6.0000 	   53.0000 	    1.6511
    1.9150 	   53.6300 	    6.0000 	   53.0000 	    1.8031
    1.8387 	   53.7850 	    6.0000 	   53.0000 	    1.9581
    1.8540 	   53.9330 	    6.0000 	   53.0000 	    2.1062
    1.8387 	   54.0780 	    6.0000 	   53.0000 	    2.2512
    1.8540 	   54.2160 	    6.0000 	   53.0000 	    2.3892
    1.7472 	   54.3650 	    6.0000 	   53.0000 	    2.5382
    2.0218 	   54.5160 	    6.0000 	   53.0000 	    2.6892
    1.9150 	   54.6680 	    6.0000 	   53.0000 	    2.8412
    1.8387 	   54.8260 	    6.0000 	   53.0000 	    2.9992
    1.8845 	   54.9750 	    6.0000 	   53.0000 	    3.1482
    2.0829 	   55.1210 	    6.0000 	   53.0000 	    3.2942
    1.8845 	   55.2710 	    6.0000 	   53.0000 	    3.4442
    1.5335 	   55.4260 	    6.0000 	   53.0000 	    3.5992
    1.8845 	   55.5770 	    6.0000 	   53.0000 	    3.7503
    1.8845 	   55.7340 	    6.0000 	   53.0000 	    3.9073
    2.0066 	   55.8880 	    6.0000 	   53.0000 	    4.0613
    1.8845 	   56.0350 	    6.0000 	   53.0000 	    4.2083
    1.7472 	   56.1830 	    6.0000 	   53.0000 	    4.3563
    1.8692 	   56.3360 	    6.0000 	   53.0000 	    4.5093
    1.8845 	   56.4940 	    6.0000 	   53.0000 	    4.6673
    1.9150 	   56.6530 	    6.0000 	   53.0000 	    4.8263
    1.9150 	   56.8110 	    6.0000 	   53.0000 	    4.9843
    2.0371 	   56.9620 	    6.0000 	   53.0000 	    5.1353
    2.0218 	   57.1050 	    6.0000 	   53.0000 	    5.2783
    1.9913 	   57.2470 	    6.0000 	   53.0000 	    5.4203
    1.8997 	   57.3960 	    6.0000 	   53.0000 	    5.5694
    1.9913 	   57.5510 	    6.0000 	   53.0000 	    5.7244
    1.8082 	   57.7040 	    6.0000 	   53.0000 	    5.8774
    2.0218 	   57.8600 	    6.0000 	   53.0000 	    6.0334
    2.0676 	   58.0160 	    6.0000 	   53.0000 	    6.1894
    1.8387 	   58.1600 	    6.0000 	   53.0000 	    6.3334
    1.8997 	   58.3090 	    6.0000 	   53.0000 	    6.4824
    1.8387 	   58.4500 	    6.0000 	   53.0000 	    6.6234
    1.9303 	   58.6020 	    6.0000 	   53.0000 	    6.7754
    1.8997 	   58.7550 	    6.0000 	   53.0000 	    6.9284
    2.0218 	   58.9060 	    6.0000 	   53.0000 	    7.0794
    1.9455 	   59.0570 	    6.0000 	   53.0000 	    7.2304
    1.8692 	   59.2130 	    6.0000 	   53.0000 	    7.3865
    2.0218 	   59.3610 	    6.0000 	   53.0000 	    7.5345
    1.9455 	   59.5130 	    6.0000 	   53.0000 	    7.6865
    1.7929 	   59.6680 	    6.0000 	   53.0000 	    7.8415
    1.8997 	   59.8270 	    6.0000 	   53.0000 	    8.0005
    2.0218 	   59.9760 	    6.0000 	   53.0000 	    8.1495
    1.7166 	   60.1220 	    6.0000 	   53.0000 	    8.2955
    1.8692 	   60.2770 	    6.0000 	   53.0000 	    8.4505
    1.8540 	   60.4380 	    6.0000 	   53.0000 	    8.6115
    1.7929 	   60.6050 	    6.0000 	   53.0000 	    8.7785
    1.8540 	   60.7700 	    6.0000 	   53.0000 	    8.9435
    1.8997 	   60.9260 	    6.0000 	   53.0000 	    9.0996
    1.7929 	   61.0780 	    6.0000 	   53.0000 	    9.2506
    1.9150 	   61.2320 	    6.0000 	   53.0000 	    9.4046
    1.9913 	   61.3880 	    6.0000 	   53.0000 	    9.5606
    1.7319 	   61.5400 	    6.0000 	   53.0000 	    9.7126
    1.8235 	   61.6900 	    6.0000 	   53.0000 	    9.8626
    2.0676 	   61.8480 	    6.0000 	   53.0000 	   10.0206
    1.8997 	   61.9990 	    6.0000 	   53.0000 	   10.1716
    1.7929 	   62.1460 	    6.0000 	   53.0000 	   10.3186
    1.8692 	   62.2870 	    6.0000 	   53.0000 	   10.4596
    1.9303 	   62.4330 	    6.0000 	   53.0000 	   10.6056
    2.0523 	   62.5980 	    6.0000 	   53.0000 	   10.7707
    1.7777 	   62.7480 	    6.0000 	   53.0000 	   10.9207
    1.8387 	   62.8990 	    6.0000 	   53.0000 	   11.0717
    1.6251 	   63.0470 	    6.0000 	   53.0000 	   11.2197
    1.7777 	   63.1910 	    6.0000 	   53.0000 	   11.3637
    1.9303 	   63.3500 	    6.0000 	   53.0000 	   11.5227
    1.6098 	   63.5110 	    6.0000 	   53.0000 	   11.6837
    2.0676 	   63.6680 	    6.0000 	   53.0000 	   11.8407
    1.9150 	   63.8140 	    6.0000 	   53.0000 	   11.9867
    1.8540 	   63.9640 	    6.0000 	   53.0000 	   12.1367
    1.8540 	   64.1200 	    6.0000 	   53.0000 	   12.2927
    1.8692 	   64.2730 	    6.0000 	   53.0000 	   12.4457
    1.9303 	   64.4400 	    6.0000 	   53.0000 	   12.6128
    1.9455 	   64.6000 	    6.0000 	   53.0000 	   12.7728
    1.8997 	   64.7570 	    6.0000 	   53.0000 	   12.9298
    2.0981 	   64.9150 	    6.0000 	   53.0000 	   13.0878
    1.8540 	   65.0640 	    6.0000 	   53.0000 	   13.2368
    1.8997 	   65.2070 	    6.0000 	   53.0000 	   13.3798
    2.0829 	   65.3520 	    6.0000 	   53.0000 	   13.5248
    1.9303 	   65.5070 	    6.0000 	   53.0000 	   13.6798
    1.8692 	   65.6680 	    6.0000 	   53.0000 	   13.8408
    1.8692 	   65.8270 	    6.0000 	   53.0000 	   13.9998
    1.8235 	   65.9780 	    6.0000 	   53.0000 	   14.1508
    1.8540 	   66.1290 	    6.0000 	   53.0000 	   14.3019
    1.9303 	   66.2830 	    6.0000 	   53.0000 	   14.4559
    1.9150 	   66.4440 	    6.0000 	   53.0000 	   14.6169
    1.9608 	   66.6060 	    6.0000 	   53.0000 	   14.7789
    1.9455 	   66.7680 	    6.0000 	   53.0000 	   14.9409
    1.8387 	   66.9320 	    6.0000 	   53.0000 	   15.1049
    1.8540 	   67.0880 	    6.0000 	   53.0000 	   15.2609
    2.0066 	   67.2360 	    6.0000 	   53.0000 	   15.4089
    1.6861 	   67.3970 	    6.0000 	   53.0000 	   15.5699
    1.9455 	   67.5600 	    6.0000 	   53.0000 	   15.7329
    1.9760 	   67.7220 	    6.0000 	   53.0000 	   15.8949
    1.9760 	   67.8880 	    6.0000 	   53.0000 	   16.0610
    1.9455 	   68.0440 	    6.0000 	   53.0000 	   16.2170
    1.5946 	   68.1960 	    6.0000 	   53.0000 	   16.3690
    1.9760 	   68.3590 	    6.0000 	   53.0000 	   16.5320
    1.8845 	   68.5310 	    6.0000 	   53.0000 	   16.7040
    1.9150 	   68.6960 	    6.0000 	   53.0000 	   16.8690
    1.7624 	   68.8640 	    6.0000 	   53.0000 	   17.0370
    1.8997 	   69.0230 	    6.0000 	   53.0000 	   17.1960
    1.7929 	   69.1700 	    6.0000 	   53.0000 	   17.3430
    1.7929 	   69.3210 	    6.0000 	   53.0000 	   17.4940
    1.8387 	   69.4880 	    6.0000 	   53.0000 	   17.6610
    2.0066 	   69.6570 	    6.0000 	   53.0000 	   17.8301
    1.9455 	   69.8250 	    6.0000 	   53.0000 	   17.9981
    1.7624 	   69.9870 	    6.0000 	   53.0000 	   18.1601
    1.8540 	   70.1410 	    6.0000 	   53.0000 	   18.3141
    1.8387 	   70.2900 	    6.0000 	   53.0000 	   18.4631
    1.8387 	   70.4530 	    6.0000 	   53.0000 	   18.6261
    1.8845 	   70.6220 	    6.0000 	   53.0000 	   18.7951
    1.8387 	   70.7890 	    6.0000 	   53.0000 	   18.9621
    1.8845 	   70.9500 	    6.0000 	   53.0000 	   19.1231
    1.7166 	   71.1010 	    6.0000 	   53.0000 	   19.2741
    1.8235 	   71.2500 	    6.0000 	   53.0000 	   19.4231
    1.7777 	   71.4020 	    6.0000 	   53.0000 	   19.5752
    2.0066 	   71.5520 	    6.0000 	   53.0000 	   19.7252
    1.9913 	   71.7170 	    6.0000 	   53.0000 	   19.8902
    1.6556 	   71.8860 	    6.0000 	   53.0000 	   20.0592
    1.8540 	   72.0470 	    6.0000 	   53.0000 	   20.2202
    1.5488 	   72.2090 	    6.0000 	   53.0000 	   20.3822
    1.8845 	   72.3610 	    6.0000 	   53.0000 	   20.5342
    1.8845 	   72.5130 	    6.0000 	   53.0000 	   20.6862
    1.8997 	   72.6810 	    6.0000 	   53.0000 	   20.8542
    1.8235 	   72.8450 	    6.0000 	   53.0000 	   21.0182
    1.9608 	   73.0130 	    6.0000 	   53.0000 	   21.1862
    1.8845 	   73.1680 	    6.0000 	   53.0000 	   21.3413
    1.7166 	   73.3180 	    6.0000 	   53.0000 	   21.4913
    1.7624 	   73.4720 	    6.0000 	   53.0000 	   21.6453
    1.9608 	   73.6230 	    6.0000 	   53.0000 	   21.7963
    1.6861 	   73.7740 	    6.0000 	   53.0000 	   21.9473
    1.8540 	   73.9270 	    6.0000 	   53.0000 	   22.1003
    1.8692 	   74.0970 	    6.0000 	   53.0000 	   22.2703
    1.8845 	   74.2540 	    6.0000 	   53.0000 	   22.4273
    1.8692 	   74.4060 	    6.0000 	   53.0000 	   22.5793
    1.8540 	   74.5750 	    6.0000 	   53.0000 	   22.7483
    1.7777 	   74.7420 	    6.0000 	   53.0000 	   22.9153
    1.9455 	   74.9090 	    6.0000 	   53.0000 	   23.0824
    1.8387 	   75.0740 	    6.0000 	   53.0000 	   23.2474
    1.8997 	   75.2340 	    6.0000 	   53.0000 	   23.4074
    1.9455 	   75.3880 	    6.0000 	   53.0000 	   23.5614
    1.9150 	   75.5410 	    6.0000 	   53.0000 	   23.7144
    1.8540 	   75.7040 	    6.0000 	   53.0000 	   23.8774
    1.8845 	   75.8600 	    6.0000 	   53.0000 	   24.0334
    1.9455 	   76.0130 	    6.0000 	   53.0000 	   24.1864
    1.8235 	   76.1720 	    6.0000 	   53.0000 	   24.3454
    1.8082 	   76.3290 	    6.0000 	   53.0000 	   24.5024
    1.7166 	   76.4960 	    6.0000 	   53.0000 	   24.6694
    1.9760 	   76.6550 	    6.0000 	   53.0000 	   24.8285
    2.0066 	   76.8080 	    6.0000 	   53.0000 	   24.9815
    1.8387 	   76.9600 	    6.0000 	   53.0000 	   25.1335
    1.7777 	   77.1120 	    6.0000 	   53.0000 	   25.2855
    1.8540 	   77.2630 	    6.0000 	   53.0000 	   25.4365
    1.8387 	   77.4240 	    6.0000 	   53.0000 	   25.5975
    1.7014 	   77.5930 	    6.0000 	   53.0000 	   25.7665
    1.8082 	   77.7460 	    6.0000 	   53.0000 	   25.9195
    1.9455 	   77.8980 	    6.0000 	   53.0000 	   26.0715
    1.8540 	   78.0560 	    6.0000 	   53.0000 	   26.2295
    1.8540 	   78.2180 	    6.0000 	   53.0000 	   26.3915
    1.6403 	   78.3780 	    6.0000 	   53.0000 	   26.5516
    1.8997 	   78.5480 	    6.0000 	   53.0000 	   26.7206
    1.7929 	   78.7080 	    6.0000 	   53.0000 	   26.8806
    1.9608 	   78.8660 	    6.0000 	   53.0000 	   27.0386
    1.8387 	   79.0270 	    6.0000 	   53.0000 	   27.1996
    1.8845 	   79.1840 	    6.0000 	   53.0000 	   27.3566
    1.8845 	   79.3410 	    6.0000 	   53.0000 	   27.5136
    1.8997 	   79.5070 	    6.0000 	   53.0000 	   27.6796
    1.9608 	   79.6680 	    6.0000 	   53.0000 	   27.8406
    1.9913 	   79.8260 	    6.0000 	   53.0000 	   27.9986
    1.7929 	   79.9890 	    6.0000 	   53.0000 	   28.1616
    2.0066 	   80.1520 	    6.0000 	   53.0000 	   28.3247
    1.9608 	   80.3100 	    6.0000 	   53.0000 	   28.4827
    1.9303 	   80.4800 	    6.0000 	   53.0000 	   28.6527
    1.8082 	   80.6450 	    6.0000 	   53.0000 	   28.8177
    1.8082 	   80.8030 	    6.0000 	   53.0000 	   28.9757
    2.1134 	   80.9650 	    6.0000 	   53.0000 	   29.1377
    1.7929 	   81.1200 	    6.0000 	   53.0000 	   29.2927
    1.8692 	   81.2770 	    6.0000 	   53.0000 	   29.4497
    2.0371 	   81.4450 	    6.0000 	   53.0000 	   29.6177
    1.8082 	   81.6180 	    6.0000 	   53.0000 	   29.7907
    1.8387 	   81.7760 	    6.0000 	   53.0000 	   29.9487
    1.9608 	   81.9350 	    6.0000 	   53.0000 	   30.1078
    2.0676 	   82.1000 	    6.0000 	   53.0000 	   30.2728
    1.9303 	   82.2560 	    6.0000 	   53.0000 	   30.4288
    1.8997 	   82.4150 	    6.0000 	   53.0000 	   30.5878
    1.8692 	   82.5900 	    6.0000 	   53.0000 	   30.7628
    1.9150 	   82.7560 	    6.0000 	   53.0000 	   30.9288
    1.7777 	   82.9140 	    6.0000 	   53.0000 	   31.0868
    1.9455 	   83.0770 	    6.0000 	   53.0000 	   31.2498
    1.8387 	   83.2350 	    6.0000 	   53.0000 	   31.4078
    1.8997 	   83.3940 	    6.0000 	   53.0000 	   31.5668
    1.9150 	   83.5720 	    6.0000 	   53.0000 	   31.7449
    1.8692 	   83.7330 	    6.0000 	   53.0000 	   31.9059
    1.8692 	   83.8900 	    6.0000 	   53.0000 	   32.0629
    1.6861 	   84.0490 	    6.0000 	   53.0000 	   32.2219
    1.7319 	   84.2080 	    6.0000 	   53.0000 	   32.3809
    1.7014 	   84.3680 	    6.0000 	   53.0000 	   32.5409
    1.6861 	   84.5440 	    6.0000 	   53.0000 	   32.7169
    1.5488 	   84.7030 	    6.0000 	   53.0000 	   32.8759
    1.5183 	   84.8620 	    6.0000 	   53.0000 	   33.0349
    1.5488 	   85.0180 	    6.0000 	   53.0000 	   33.1909
    1.3504 	   85.1770 	    6.0000 	   53.0000 	   33.3499
    1.5793 	   85.3430 	    6.0000 	   53.0000 	   33.5160
    1.5030 	   85.5210 	    6.0000 	   53.0000 	   33.6940
    1.5183 	   85.6840 	    6.0000 	   53.0000 	   33.8570
    1.4115 	   85.8570 	    6.0000 	   53.0000 	   34.0300
    1.3657 	   86.0310 	    6.0000 	   53.0000 	   34.2040
    1.4267 	   86.2080 	    6.0000 	   53.0000 	   34.3810
    1.4572 	   86.3760 	    6.0000 	   53.0000 	   34.5490
    1.3962 	   86.5540 	    6.0000 	   53.0000 	   34.7270
    1.3352 	   86.7150 	    6.0000 	   53.0000 	   34.8880
    1.2131 	   86.8900 	    6.0000 	   53.0000 	   35.0630
    1.3504 	   87.0660 	    6.0000 	   53.0000 	   35.2391
    1.4267 	   87.2410 	    6.0000 	   53.0000 	   35.4141
    1.2589 	   87.4090 	    6.0000 	   53.0000 	   35.5821
    1.2894 	   87.5920 	    6.0000 	   53.0000 	   35.7641
    1.3657 	   87.7510 	    6.0000 	   53.0000 	   35.9241
    1.2741 	   87.9210 	    6.0000 	   53.0000 	   36.0941
    1.3046 	   88.1030 	    6.0000 	   53.0000 	   36.2761
    1.0452 	   88.2760 	    6.0000 	   53.0000 	   36.4491
    1.2284 	   88.4450 	    6.0000 	   53.0000 	   36.6181
    1.2436 	   88.6210 	    6.0000 	   53.0000 	   36.7941
    1.1826 	   88.7810 	    6.0000 	   53.0000 	   36.9542
    1.1673 	   88.9530 	    6.0000 	   53.0000 	   37.1262
    1.3046 	   89.1120 	    6.0000 	   53.0000 	   37.2852
    1.0452 	   89.2700 	    6.0000 	   53.0000 	   37.4432
    1.2589 	   89.4320 	    6.0000 	   53.0000 	   37.6052
    1.0758 	   89.6330 	    6.0000 	   53.0000 	   37.8062
    1.1826 	   89.8030 	    6.0000 	   53.0000 	   37.9762
    1.1826 	   89.9800 	    6.0000 	   53.0000 	   38.1532
    1.0147 	   90.1600 	    6.0000 	   53.0000 	   38.3332
    1.1368 	   90.3370 	    6.0000 	   53.0000 	   38.5102
    1.0147 	   90.5770 	    6.0000 	   53.0000 	   38.7503
    1.1521 	   90.7430 	    6.0000 	   53.0000 	   38.9163
    1.0300 	   90.9180 	    6.0000 	   53.0000 	   39.0913
    0.9537 	   91.1000 	    6.0000 	   53.0000 	   39.2733
    0.9537 	   91.2770 	    6.0000 	   53.0000 	   39.4503
    0.9537 	   91.4440 	    6.0000 	   53.0000 	   39.6173
    0.9842 	   91.6220 	    6.0000 	   53.0000 	   39.7953
    1.1826 	   91.7820 	    6.0000 	   53.0000 	   39.9553
    1.0147 	   91.9520 	    6.0000 	   53.0000 	   40.1253
    1.0147 	   92.1310 	    6.0000 	   53.0000 	   40.3043
    1.0605 	   92.3080 	    6.0000 	   53.0000 	   40.4813
    1.0300 	   92.4850 	    6.0000 	   53.0000 	   40.6584
    1.1521 	   92.6740 	    6.0000 	   53.0000 	   40.8474
    0.9537 	   92.8410 	    6.0000 	   53.0000 	   41.0144
    1.1368 	   93.0200 	    6.0000 	   53.0000 	   41.1934
    1.0452 	   93.1980 	    6.0000 	   53.0000 	   41.3714
    0.9537 	   93.3790 	    6.0000 	   53.0000 	   41.5524
    0.8164 	   93.5610 	    6.0000 	   53.0000 	   41.7344
    0.9689 	   93.7530 	    6.0000 	   53.0000 	   41.9264
    1.0300 	   93.9240 	    6.0000 	   53.0000 	   42.0974
    1.0147 	   94.0920 	    6.0000 	   53.0000 	   42.2655
    0.9232 	   94.2550 	    6.0000 	   53.0000 	   42.4285
    0.8164 	   94.4200 	    6.0000 	   53.0000 	   42.5935
    0.8316 	   94.5960 	    6.0000 	   53.0000 	   42.7695
    1.0605 	   94.7800 	    6.0000 	   53.0000 	   42.9525
    0.6180 	   94.9510 	    6.0000 	   53.0000 	   43.1245
    0.8621 	   95.1700 	    6.0000 	   53.0000 	   43.3435
    0.9079 	   95.3330 	    6.0000 	   53.0000 	   43.5065
    0.8164 	   95.5070 	    6.0000 	   53.0000 	   43.6805
    1.0452 	   95.6870 	    6.0000 	   53.0000 	   43.8605
    0.9689 	   95.8620 	    6.0000 	   53.0000 	   44.0356
    0.8621 	   96.0320 	    6.0000 	   53.0000 	   44.2046
    0.9232 	   96.2080 	    6.0000 	   53.0000 	   44.3806
    0.8774 	   96.3800 	    6.0000 	   53.0000 	   44.5526
    0.9537 	   96.5450 	    6.0000 	   53.0000 	   44.7176
    0.9079 	   96.7350 	    6.0000 	   53.0000 	   44.9076
    0.7858 	   96.8990 	    6.0000 	   53.0000 	   45.0716
    0.7553 	   97.0670 	    6.0000 	   53.0000 	   45.2396
    0.8316 	   97.2360 	    6.0000 	   53.0000 	   45.4086
    0.7858 	   97.4130 	    6.0000 	   53.0000 	   45.5856
    0.7858 	   97.5850 	    6.0000 	   53.0000 	   45.7577
    0.9384 	   97.7700 	    6.0000 	   53.0000 	   45.9427
    0.5722 	   97.9300 	    6.0000 	   53.0000 	   46.1027
    0.9384 	   98.0980 	    6.0000 	   53.0000 	   46.2707
    0.8621 	   98.2680 	    6.0000 	   53.0000 	   46.4407
    0.6790 	   98.4440 	    6.0000 	   53.0000 	   46.6167
    0.6943 	   98.6150 	    6.0000 	   53.0000 	   46.7877
    0.8621 	   98.7990 	    6.0000 	   53.0000 	   46.9717
    0.8316 	   98.9690 	    6.0000 	   53.0000 	   47.1417
    0.8164 	   99.1370 	    6.0000 	   53.0000 	   47.3097
    0.9842 	   99.3020 	    6.0000 	   53.0000 	   47.4748
    0.8621 	   99.4680 	    6.0000 	   53.0000 	   47.6408
    0.8316 	   99.6430 	    6.0000 	   53.0000 	   47.8158
    0.7401 	   99.8210 	    6.0000 	   53.0000 	   47.9938
    0.8469 	   99.9810 	    6.0000 	   53.0000 	   48.1538
    0.7401 	  100.1540 	    6.0000 	   53.0000 	   48.3268
    0.6943 	  100.3340 	    6.0000 	   53.0000 	   48.5068
    0.7706 	  100.5100 	    6.0000 	   53.0000 	   48.6828
    0.7706 	  100.6910 	    6.0000 	   53.0000 	   48.8638
    0.8927 	  100.8640 	    6.0000 	   53.0000 	   49.0368
    0.7858 	  101.0340 	    6.0000 	   53.0000 	   49.2069
    0.8774 	  101.2030 	    6.0000 	   53.0000 	   49.3759
    0.8316 	  101.3810 	    6.0000 	   53.0000 	   49.5539
    0.7095 	  101.5560 	    6.0000 	   53.0000 	   49.7289
    0.7706 	  101.7350 	    6.0000 	   53.0000 	   49.9079
    0.8621 	  101.9080 	    6.0000 	   53.0000 	   50.0809
    0.6332 	  102.0850 	    6.0000 	   53.0000 	   50.2579
    0.8164 	  102.2600 	    6.0000 	   53.0000 	   50.4329
    0.7248 	  102.4300 	    6.0000 	   53.0000 	   50.6029
    0.7553 	  102.5980 	    6.0000 	   53.0000 	   50.7709
    0.6485 	  102.7750 	    6.0000 	   53.0000 	   50.9479
    0.6638 	  102.9400 	    6.0000 	   53.0000 	   51.1130
    0.7401 	  103.1190 	    6.0000 	   53.0000 	   51.2920
    0.8621 	  103.2940 	    6.0000 	   53.0000 	   51.4670
    0.4959 	  103.4810 	    6.0000 	   53.0000 	   51.6540
    0.6943 	  103.6610 	    6.0000 	   53.0000 	   51.8340
    0.6485 	  103.8290 	    6.0000 	   53.0000 	   52.0020
    0.8164 	  103.9900 	    6.0000 	   53.0000 	   52.1630
    0.6790 	  104.1520 	    6.0000 	   53.0000 	   52.3250
    0.3738 	  104.3160 	    6.0000 	   53.0000 	   52.4890
    0.6790 	  104.4950 	    6.0000 	   53.0000 	   52.6680
    0.6332 	  104.6720 	    6.0000 	   53.0000 	   52.8451
    0.8469 	  104.8400 	    6.0000 	   53.0000 	   53.0131
    0.5264 	  105.0050 	    6.0000 	   53.0000 	   53.1781
    0.6485 	  105.1820 	    6.0000 	   53.0000 	   53.3551
    0.6332 	  105.3660 	    6.0000 	   53.0000 	   53.5391
    0.6790 	  105.5480 	    6.0000 	   53.0000 	   53.7211
    0.5570 	  105.7200 	    6.0000 	   53.0000 	   53.8931
    0.7553 	  105.8970 	    6.0000 	   53.0000 	   54.0701
    0.6790 	  106.0680 	    6.0000 	   53.0000 	   54.2411
    0.7401 	  106.1940 	    6.0000 	   53.0000 	   54.3671