File: instron/independence/relaxation/bad_l15w3_30_60_pre10/b_l15w3_30_60_pre10_step.txt
Thayer School of Engineering        Instron 4442 Mechanical Testing System
7/5/2018 6:30:12 AM

  Force (N)	Extension (mm)	Not Used	Not Used	Not Used	     Hour	    Minute	    Second
    0.7553 	    1.0190 	    6.0000 	   31.0000 	   23.7059
    0.8316 	    1.2880 	    6.0000 	   31.0000 	   23.9749
    0.6332 	    1.5320 	    6.0000 	   31.0000 	   24.2189
    0.8316 	    1.7900 	    6.0000 	   31.0000 	   24.4769
    0.8621 	    2.0430 	    6.0000 	   31.0000 	   24.7299
    0.7095 	    2.2920 	    6.0000 	   31.0000 	   24.9790
    0.7706 	    2.5330 	    6.0000 	   31.0000 	   25.2200
    1.0300 	    2.7750 	    6.0000 	   31.0000 	   25.4620
    0.9384 	    3.0250 	    6.0000 	   31.0000 	   25.7120
    0.7553 	    3.2430 	    6.0000 	   31.0000 	   25.9300
    0.9384 	    3.4470 	    6.0000 	   31.0000 	   26.1340
    0.7706 	    3.5920 	    6.0000 	   31.0000 	   26.2790
    0.9689 	    3.7420 	    6.0000 	   31.0000 	   26.4290
    0.8621 	    3.8900 	    6.0000 	   31.0000 	   26.5771
    1.0452 	    4.0560 	    6.0000 	   31.0000 	   26.7431
    0.9537 	    4.2190 	    6.0000 	   31.0000 	   26.9061
    0.9842 	    4.3720 	    6.0000 	   31.0000 	   27.0591
    0.9842 	    4.5100 	    6.0000 	   31.0000 	   27.1971
    0.9384 	    4.6540 	    6.0000 	   31.0000 	   27.3411
    0.8927 	    4.7960 	    6.0000 	   31.0000 	   27.4831
    0.9232 	    4.9320 	    6.0000 	   31.0000 	   27.6191
    0.9384 	    5.0920 	    6.0000 	   31.0000 	   27.7791
    0.9689 	    5.2560 	    6.0000 	   31.0000 	   27.9431
    0.8774 	    5.4400 	    6.0000 	   31.0000 	   28.1271
    1.0605 	    5.5850 	    6.0000 	   31.0000 	   28.2722
    0.9842 	    5.7320 	    6.0000 	   31.0000 	   28.4192
    0.9537 	    5.8920 	    6.0000 	   31.0000 	   28.5792
    1.0147 	    6.0490 	    6.0000 	   31.0000 	   28.7362
    0.9079 	    6.2040 	    6.0000 	   31.0000 	   28.8912
    1.0300 	    6.3560 	    6.0000 	   31.0000 	   29.0432
    1.0147 	    6.5150 	    6.0000 	   31.0000 	   29.2022
    1.0452 	    6.6600 	    6.0000 	   31.0000 	   29.3472
    0.9995 	    6.7920 	    6.0000 	   31.0000 	   29.4792
    1.1521 	    6.9370 	    6.0000 	   31.0000 	   29.6242
    1.0452 	    7.0900 	    6.0000 	   31.0000 	   29.7772
    0.9384 	    7.2460 	    6.0000 	   31.0000 	   29.9332
    1.0758 	    7.3990 	    6.0000 	   31.0000 	   30.0863
    1.0910 	    7.5360 	    6.0000 	   31.0000 	   30.2233
    0.9995 	    7.6780 	    6.0000 	   31.0000 	   30.3653
    1.1063 	    7.8120 	    6.0000 	   31.0000 	   30.4993
    1.0452 	    7.9620 	    6.0000 	   31.0000 	   30.6493
    1.0605 	    8.1210 	    6.0000 	   31.0000 	   30.8083
    1.0910 	    8.2800 	    6.0000 	   31.0000 	   30.9673
    1.1215 	    8.4330 	    6.0000 	   31.0000 	   31.1203
    1.0758 	    8.5810 	    6.0000 	   31.0000 	   31.2683
    1.1063 	    8.7210 	    6.0000 	   31.0000 	   31.4083
    1.1368 	    8.8710 	    6.0000 	   31.0000 	   31.5583
    1.0910 	    9.0260 	    6.0000 	   31.0000 	   31.7134
    0.9079 	    9.1820 	    6.0000 	   31.0000 	   31.8694
    1.0910 	    9.3370 	    6.0000 	   31.0000 	   32.0244
    1.1521 	    9.4930 	    6.0000 	   31.0000 	   32.1804
    1.1673 	    9.6390 	    6.0000 	   31.0000 	   32.3264
    1.0910 	    9.7790 	    6.0000 	   31.0000 	   32.4664
    1.0758 	    9.9330 	    6.0000 	   31.0000 	   32.6204
    1.1978 	   10.0910 	    6.0000 	   31.0000 	   32.7784
    1.0758 	   10.2420 	    6.0000 	   31.0000 	   32.9294
    1.1673 	   10.3950 	    6.0000 	   31.0000 	   33.0824
    1.1368 	   10.5490 	    6.0000 	   31.0000 	   33.2364
    0.9537 	   10.6970 	    6.0000 	   31.0000 	   33.3844
    1.2894 	   10.8370 	    6.0000 	   31.0000 	   33.5245
    1.2436 	   10.9970 	    6.0000 	   31.0000 	   33.6845
    1.2284 	   11.1650 	    6.0000 	   31.0000 	   33.8525
    1.3504 	   11.3210 	    6.0000 	   31.0000 	   34.0085
    1.0605 	   11.4790 	    6.0000 	   31.0000 	   34.1665
    1.2436 	   11.6290 	    6.0000 	   31.0000 	   34.3165
    1.1063 	   11.7630 	    6.0000 	   31.0000 	   34.4505
    1.2741 	   11.9210 	    6.0000 	   31.0000 	   34.6085
    1.1063 	   12.0850 	    6.0000 	   31.0000 	   34.7725
    1.3504 	   12.2450 	    6.0000 	   31.0000 	   34.9325
    1.3199 	   12.4020 	    6.0000 	   31.0000 	   35.0895
    1.2589 	   12.5630 	    6.0000 	   31.0000 	   35.2506
    1.3199 	   12.7140 	    6.0000 	   31.0000 	   35.4016
    1.3046 	   12.8680 	    6.0000 	   31.0000 	   35.5556
    1.3199 	   13.0320 	    6.0000 	   31.0000 	   35.7196
    1.3046 	   13.1950 	    6.0000 	   31.0000 	   35.8826
    1.3657 	   13.3480 	    6.0000 	   31.0000 	   36.0356
    1.2894 	   13.5060 	    6.0000 	   31.0000 	   36.1936
    1.3199 	   13.6560 	    6.0000 	   31.0000 	   36.3436
    1.3657 	   13.7980 	    6.0000 	   31.0000 	   36.4856
    1.3046 	   13.9470 	    6.0000 	   31.0000 	   36.6346
    1.2741 	   14.0890 	    6.0000 	   31.0000 	   36.7766
    1.2894 	   14.2320 	    6.0000 	   31.0000 	   36.9196
    1.5488 	   14.3770 	    6.0000 	   31.0000 	   37.0647
    1.5335 	   14.5320 	    6.0000 	   31.0000 	   37.2197
    1.3199 	   14.7190 	    6.0000 	   31.0000 	   37.4067
    1.5488 	   14.8570 	    6.0000 	   31.0000 	   37.5447
    1.4267 	   15.0200 	    6.0000 	   31.0000 	   37.7067
    1.6251 	   15.1710 	    6.0000 	   31.0000 	   37.8577
    1.5793 	   15.3270 	    6.0000 	   31.0000 	   38.0137
    1.6709 	   15.4860 	    6.0000 	   31.0000 	   38.1727
    1.6251 	   15.6400 	    6.0000 	   31.0000 	   38.3267
    1.4420 	   15.7810 	    6.0000 	   31.0000 	   38.4677
    1.5640 	   15.9300 	    6.0000 	   31.0000 	   38.6167
    1.5488 	   16.0900 	    6.0000 	   31.0000 	   38.7768
    1.5183 	   16.2520 	    6.0000 	   31.0000 	   38.9388
    1.5946 	   16.4180 	    6.0000 	   31.0000 	   39.1048
    1.3352 	   16.5770 	    6.0000 	   31.0000 	   39.2638
    1.4420 	   16.7200 	    6.0000 	   31.0000 	   39.4068
    1.5183 	   16.8660 	    6.0000 	   31.0000 	   39.5528
    1.6556 	   17.0200 	    6.0000 	   31.0000 	   39.7068
    1.5946 	   17.1680 	    6.0000 	   31.0000 	   39.8548
    1.7014 	   17.3190 	    6.0000 	   31.0000 	   40.0058
    1.5946 	   17.4810 	    6.0000 	   31.0000 	   40.1678
    1.6556 	   17.6360 	    6.0000 	   31.0000 	   40.3228
    1.7319 	   17.7880 	    6.0000 	   31.0000 	   40.4748
    1.7929 	   17.9360 	    6.0000 	   31.0000 	   40.6229
    1.7014 	   18.1050 	    6.0000 	   31.0000 	   40.7919
    1.6556 	   18.2680 	    6.0000 	   31.0000 	   40.9549
    1.6709 	   18.4280 	    6.0000 	   31.0000 	   41.1149
    1.7014 	   18.5900 	    6.0000 	   31.0000 	   41.2769
    1.8387 	   18.7420 	    6.0000 	   31.0000 	   41.4289
    1.6556 	   18.8890 	    6.0000 	   31.0000 	   41.5759
    1.8082 	   19.0550 	    6.0000 	   31.0000 	   41.7419
    1.7777 	   19.2160 	    6.0000 	   31.0000 	   41.9029
    1.7319 	   19.3850 	    6.0000 	   31.0000 	   42.0719
    1.7777 	   19.5540 	    6.0000 	   31.0000 	   42.2400
    1.7929 	   19.7080 	    6.0000 	   31.0000 	   42.3950
    1.7777 	   19.8500 	    6.0000 	   31.0000 	   42.5370
    1.7777 	   20.0030 	    6.0000 	   31.0000 	   42.6900
    1.7929 	   20.1720 	    6.0000 	   31.0000 	   42.8590
    1.8082 	   20.3330 	    6.0000 	   31.0000 	   43.0200
    1.8692 	   20.5010 	    6.0000 	   31.0000 	   43.1880
    1.8082 	   20.6660 	    6.0000 	   31.0000 	   43.3530
    1.7929 	   20.8190 	    6.0000 	   31.0000 	   43.5060
    1.9150 	   20.9650 	    6.0000 	   31.0000 	   43.6520
    2.0371 	   21.1380 	    6.0000 	   31.0000 	   43.8250
    1.8997 	   21.2860 	    6.0000 	   31.0000 	   43.9731
    1.8540 	   21.4360 	    6.0000 	   31.0000 	   44.1231
    1.9913 	   21.5850 	    6.0000 	   31.0000 	   44.2721
    1.9150 	   21.7330 	    6.0000 	   31.0000 	   44.4201
    2.0371 	   21.8880 	    6.0000 	   31.0000 	   44.5751
    2.2202 	   22.0480 	    6.0000 	   31.0000 	   44.7351
    1.9913 	   22.2190 	    6.0000 	   31.0000 	   44.9061
    2.1439 	   22.3820 	    6.0000 	   31.0000 	   45.0691
    2.0981 	   22.5510 	    6.0000 	   31.0000 	   45.2381
    2.0676 	   22.7140 	    6.0000 	   31.0000 	   45.4011
    2.0066 	   22.8680 	    6.0000 	   31.0000 	   45.5551
    2.2812 	   23.0160 	    6.0000 	   31.0000 	   45.7032
    2.0523 	   23.1840 	    6.0000 	   31.0000 	   45.8712
    2.2049 	   23.3460 	    6.0000 	   31.0000 	   46.0332
    2.1592 	   23.4990 	    6.0000 	   31.0000 	   46.1862
    2.1744 	   23.6500 	    6.0000 	   31.0000 	   46.3372
    2.2507 	   23.7960 	    6.0000 	   31.0000 	   46.4832
    1.9150 	   23.9420 	    6.0000 	   31.0000 	   46.6292
    2.2507 	   24.1100 	    6.0000 	   31.0000 	   46.7972
    2.2965 	   24.2710 	    6.0000 	   31.0000 	   46.9582
    2.2049 	   24.4330 	    6.0000 	   31.0000 	   47.1202
    2.2507 	   24.6060 	    6.0000 	   31.0000 	   47.2932
    2.3423 	   24.7560 	    6.0000 	   31.0000 	   47.4432
    2.3423 	   24.9040 	    6.0000 	   31.0000 	   47.5913
    2.2812 	   25.0640 	    6.0000 	   31.0000 	   47.7513
    2.3117 	   25.2360 	    6.0000 	   31.0000 	   47.9233
    2.3880 	   25.4050 	    6.0000 	   31.0000 	   48.0923
    2.4948 	   25.5760 	    6.0000 	   31.0000 	   48.2633
    2.4186 	   25.7440 	    6.0000 	   31.0000 	   48.4313
    2.4338 	   25.8920 	    6.0000 	   31.0000 	   48.5793
    2.3270 	   26.0620 	    6.0000 	   31.0000 	   48.7493
    2.5101 	   26.2320 	    6.0000 	   31.0000 	   48.9193
    2.7390 	   26.3840 	    6.0000 	   31.0000 	   49.0713
    2.4948 	   26.5370 	    6.0000 	   31.0000 	   49.2243
    2.4643 	   26.6990 	    6.0000 	   31.0000 	   49.3864
    2.4491 	   26.8550 	    6.0000 	   31.0000 	   49.5424
    2.5559 	   27.0110 	    6.0000 	   31.0000 	   49.6984
    2.5711 	   27.1650 	    6.0000 	   31.0000 	   49.8524
    2.5559 	   27.3180 	    6.0000 	   31.0000 	   50.0054
    2.6627 	   27.4710 	    6.0000 	   31.0000 	   50.1584
    2.6627 	   27.6240 	    6.0000 	   31.0000 	   50.3114
    2.7085 	   27.7750 	    6.0000 	   31.0000 	   50.4624
    2.7543 	   27.9270 	    6.0000 	   31.0000 	   50.6144
    2.6474 	   28.0840 	    6.0000 	   31.0000 	   50.7714
    2.6474 	   28.2340 	    6.0000 	   31.0000 	   50.9214
    2.7848 	   28.3840 	    6.0000 	   31.0000 	   51.0715
    2.7543 	   28.5370 	    6.0000 	   31.0000 	   51.2245
    2.7390 	   28.6950 	    6.0000 	   31.0000 	   51.3825
    2.7390 	   28.8520 	    6.0000 	   31.0000 	   51.5395
    2.7543 	   29.0030 	    6.0000 	   31.0000 	   51.6905
    2.8305 	   29.1770 	    6.0000 	   31.0000 	   51.8645
    2.8153 	   29.3340 	    6.0000 	   31.0000 	   52.0215
    2.8916 	   29.5030 	    6.0000 	   31.0000 	   52.1905
    2.8916 	   29.6640 	    6.0000 	   31.0000 	   52.3515
    2.9679 	   29.8130 	    6.0000 	   31.0000 	   52.5005
    3.0289 	   29.9580 	    6.0000 	   31.0000 	   52.6455
    2.8916 	   30.1280 	    6.0000 	   31.0000 	   52.8156
    2.8611 	   30.2890 	    6.0000 	   31.0000 	   52.9766
    2.8000 	   30.4510 	    6.0000 	   31.0000 	   53.1386
    2.9526 	   30.6090 	    6.0000 	   31.0000 	   53.2966
    2.8611 	   30.7710 	    6.0000 	   31.0000 	   53.4586
    2.5711 	   30.9290 	    6.0000 	   31.0000 	   53.6166
    2.8305 	   31.0890 	    6.0000 	   31.0000 	   53.7766
    2.9526 	   31.2570 	    6.0000 	   31.0000 	   53.9446
    2.8763 	   31.4300 	    6.0000 	   31.0000 	   54.1176
    2.9679 	   31.5860 	    6.0000 	   31.0000 	   54.2736
    2.8611 	   31.7400 	    6.0000 	   31.0000 	   54.4277
    2.9374 	   31.8960 	    6.0000 	   31.0000 	   54.5837
    2.9068 	   32.0460 	    6.0000 	   31.0000 	   54.7337
    2.8611 	   32.2180 	    6.0000 	   31.0000 	   54.9057
    2.9679 	   32.3840 	    6.0000 	   31.0000 	   55.0717
    2.8000 	   32.5580 	    6.0000 	   31.0000 	   55.2447
    2.9984 	   32.7280 	    6.0000 	   31.0000 	   55.4147
    2.9068 	   32.8850 	    6.0000 	   31.0000 	   55.5717
    2.7695 	   33.0390 	    6.0000 	   31.0000 	   55.7257
    2.6169 	   33.2150 	    6.0000 	   31.0000 	   55.9017
    2.8305 	   33.3830 	    6.0000 	   31.0000 	   56.0697
    2.9374 	   33.5600 	    6.0000 	   31.0000 	   56.2468
    3.0137 	   33.7330 	    6.0000 	   31.0000 	   56.4198
    2.9679 	   33.8890 	    6.0000 	   31.0000 	   56.5758
    2.9374 	   34.0460 	    6.0000 	   31.0000 	   56.7328
    2.8611 	   34.2100 	    6.0000 	   31.0000 	   56.8968
    2.8763 	   34.3810 	    6.0000 	   31.0000 	   57.0678
    2.7848 	   34.5550 	    6.0000 	   31.0000 	   57.2418
    2.8000 	   34.7250 	    6.0000 	   31.0000 	   57.4118
    2.8611 	   34.8870 	    6.0000 	   31.0000 	   57.5738
    2.7237 	   35.0410 	    6.0000 	   31.0000 	   57.7278
    2.9679 	   35.2020 	    6.0000 	   31.0000 	   57.8888
    3.0137 	   35.3710 	    6.0000 	   31.0000 	   58.0579
    2.6932 	   35.5390 	    6.0000 	   31.0000 	   58.2259
    2.8000 	   35.7130 	    6.0000 	   31.0000 	   58.3999
    2.9068 	   35.8820 	    6.0000 	   31.0000 	   58.5689
    2.5254 	   36.0400 	    6.0000 	   31.0000 	   58.7269
    2.8916 	   36.2100 	    6.0000 	   31.0000 	   58.8969
    2.8458 	   36.3830 	    6.0000 	   31.0000 	   59.0699
    2.7848 	   36.5590 	    6.0000 	   31.0000 	   59.2459
    2.8000 	   36.7300 	    6.0000 	   31.0000 	   59.4169
    2.8916 	   36.9010 	    6.0000 	   31.0000 	   59.5879
    2.7695 	   37.0560 	    6.0000 	   31.0000 	   59.7430
    2.8000 	   37.2340 	    6.0000 	   31.0000 	   59.9210
    2.7695 	   37.4060 	    6.0000 	   32.0000 	    0.0930
    2.7848 	   37.5790 	    6.0000 	   32.0000 	    0.2660
    2.7390 	   37.7520 	    6.0000 	   32.0000 	    0.4390
    2.7848 	   37.9150 	    6.0000 	   32.0000 	    0.6020
    2.9068 	   38.0790 	    6.0000 	   32.0000 	    0.7660
    2.5406 	   38.2550 	    6.0000 	   32.0000 	    0.9420
    2.8000 	   38.4290 	    6.0000 	   32.0000 	    1.1160
    2.8916 	   38.6040 	    6.0000 	   32.0000 	    1.2910
    2.8458 	   38.7800 	    6.0000 	   32.0000 	    1.4671
    2.8000 	   38.9440 	    6.0000 	   32.0000 	    1.6311
    2.8458 	   39.1050 	    6.0000 	   32.0000 	    1.7921
    2.6932 	   39.2770 	    6.0000 	   32.0000 	    1.9641
    2.5864 	   39.4460 	    6.0000 	   32.0000 	    2.1331
    2.7695 	   39.6230 	    6.0000 	   32.0000 	    2.3101
    2.7543 	   39.7990 	    6.0000 	   32.0000 	    2.4861
    2.8000 	   39.9670 	    6.0000 	   32.0000 	    2.6541
    2.8000 	   40.1300 	    6.0000 	   32.0000 	    2.8171
    2.7848 	   40.3050 	    6.0000 	   32.0000 	    2.9921
    2.8153 	   40.4790 	    6.0000 	   32.0000 	    3.1661
    2.8763 	   40.6600 	    6.0000 	   32.0000 	    3.3472
    2.6780 	   40.8400 	    6.0000 	   32.0000 	    3.5272
    2.6474 	   41.0030 	    6.0000 	   32.0000 	    3.6902
    2.5406 	   41.1680 	    6.0000 	   32.0000 	    3.8552
    2.9679 	   41.3490 	    6.0000 	   32.0000 	    4.0362
    2.4796 	   41.5210 	    6.0000 	   32.0000 	    4.2082
    2.7848 	   41.6820 	    6.0000 	   32.0000 	    4.3692
    2.7695 	   41.8410 	    6.0000 	   32.0000 	    4.5282
    2.7848 	   42.0030 	    6.0000 	   32.0000 	    4.6902
    2.9831 	   42.1630 	    6.0000 	   32.0000 	    4.8502
    2.7543 	   42.3240 	    6.0000 	   32.0000 	    5.0113
    2.7848 	   42.5020 	    6.0000 	   32.0000 	    5.1893
    2.8153 	   42.6800 	    6.0000 	   32.0000 	    5.3673
    2.7085 	   42.8540 	    6.0000 	   32.0000 	    5.5413
    2.6932 	   43.0210 	    6.0000 	   32.0000 	    5.7083
    2.7390 	   43.1970 	    6.0000 	   32.0000 	    5.8843
    2.6932 	   43.3710 	    6.0000 	   32.0000 	    6.0583
    2.8458 	   43.5410 	    6.0000 	   32.0000 	    6.2283
    2.8305 	   43.7190 	    6.0000 	   32.0000 	    6.4063
    2.8000 	   43.8930 	    6.0000 	   32.0000 	    6.5803
    2.7695 	   44.0560 	    6.0000 	   32.0000 	    6.7434
    2.6932 	   44.2280 	    6.0000 	   32.0000 	    6.9154
    2.8153 	   44.4070 	    6.0000 	   32.0000 	    7.0944
    2.7543 	   44.5830 	    6.0000 	   32.0000 	    7.2704
    2.6932 	   44.7670 	    6.0000 	   32.0000 	    7.4544
    2.6780 	   44.9400 	    6.0000 	   32.0000 	    7.6274
    2.5711 	   45.1060 	    6.0000 	   32.0000 	    7.7934
    2.7237 	   45.2690 	    6.0000 	   32.0000 	    7.9564
    2.5864 	   45.4360 	    6.0000 	   32.0000 	    8.1234
    2.8305 	   45.6160 	    6.0000 	   32.0000 	    8.3034
    2.6169 	   45.7920 	    6.0000 	   32.0000 	    8.4795
    2.8153 	   45.9680 	    6.0000 	   32.0000 	    8.6555
    2.7848 	   46.1390 	    6.0000 	   32.0000 	    8.8265
    2.8458 	   46.3140 	    6.0000 	   32.0000 	    9.0015
    2.7695 	   46.4880 	    6.0000 	   32.0000 	    9.1755
    2.8000 	   46.6660 	    6.0000 	   32.0000 	    9.3535
    2.7237 	   46.8500 	    6.0000 	   32.0000 	    9.5375
    2.7543 	   47.0240 	    6.0000 	   32.0000 	    9.7115
    2.7848 	   47.1930 	    6.0000 	   32.0000 	    9.8805
    2.8458 	   47.3780 	    6.0000 	   32.0000 	   10.0655
    2.8153 	   47.5620 	    6.0000 	   32.0000 	   10.2496
    2.7695 	   47.7410 	    6.0000 	   32.0000 	   10.4286
    2.6474 	   47.9240 	    6.0000 	   32.0000 	   10.6116
    2.4948 	   48.0920 	    6.0000 	   32.0000 	   10.7796
    2.8763 	   48.2670 	    6.0000 	   32.0000 	   10.9546
    2.6932 	   48.4420 	    6.0000 	   32.0000 	   11.1296
    2.7390 	   48.6280 	    6.0000 	   32.0000 	   11.3156
    2.8000 	   48.8090 	    6.0000 	   32.0000 	   11.4966
    2.6627 	   48.9950 	    6.0000 	   32.0000 	   11.6826
    2.7085 	   49.1740 	    6.0000 	   32.0000 	   11.8616
    2.8153 	   49.3500 	    6.0000 	   32.0000 	   12.0377
    2.4491 	   49.5400 	    6.0000 	   32.0000 	   12.2277
    2.6474 	   49.7290 	    6.0000 	   32.0000 	   12.4167
    2.6780 	   49.9150 	    6.0000 	   32.0000 	   12.6027
    2.7390 	   50.0980 	    6.0000 	   32.0000 	   12.7847
    2.8763 	   50.2700 	    6.0000 	   32.0000 	   12.9567
    2.7237 	   50.4560 	    6.0000 	   32.0000 	   13.1427
    2.6627 	   50.6460 	    6.0000 	   32.0000 	   13.3327
    2.8000 	   50.8320 	    6.0000 	   32.0000 	   13.5187
    2.8458 	   51.0160 	    6.0000 	   32.0000 	   13.7028
    2.7695 	   51.1960 	    6.0000 	   32.0000 	   13.8828
    2.7695 	   51.3650 	    6.0000 	   32.0000 	   14.0518
    2.8000 	   51.5500 	    6.0000 	   32.0000 	   14.2368
    2.7543 	   51.7370 	    6.0000 	   32.0000 	   14.4238
    2.6627 	   51.9250 	    6.0000 	   32.0000 	   14.6118
    2.6322 	   52.1180 	    6.0000 	   32.0000 	   14.8048
    2.6169 	   52.2930 	    6.0000 	   32.0000 	   14.9798
    2.7237 	   52.4860 	    6.0000 	   32.0000 	   15.1728
    2.8153 	   52.6780 	    6.0000 	   32.0000 	   15.3648
    2.7390 	   52.8660 	    6.0000 	   32.0000 	   15.5529
    2.7390 	   53.0480 	    6.0000 	   32.0000 	   15.7349
    2.8153 	   53.2330 	    6.0000 	   32.0000 	   15.9199
    2.9221 	   53.4070 	    6.0000 	   32.0000 	   16.0939
    2.7695 	   53.5910 	    6.0000 	   32.0000 	   16.2779
    2.6932 	   53.7780 	    6.0000 	   32.0000 	   16.4649
    2.7390 	   53.9720 	    6.0000 	   32.0000 	   16.6589
    2.6169 	   54.1580 	    6.0000 	   32.0000 	   16.8439
    2.6322 	   54.3390 	    6.0000 	   32.0000 	   17.0259
    2.7695 	   54.5270 	    6.0000 	   32.0000 	   17.2140
    2.7085 	   54.7150 	    6.0000 	   32.0000 	   17.4020
    2.7085 	   54.9070 	    6.0000 	   32.0000 	   17.5940
    2.6780 	   55.1000 	    6.0000 	   32.0000 	   17.7870
    2.7390 	   55.2860 	    6.0000 	   32.0000 	   17.9730
    2.6322 	   55.4500 	    6.0000 	   32.0000 	   18.1370
    2.6932 	   55.6270 	    6.0000 	   32.0000 	   18.3140
    2.6932 	   55.8090 	    6.0000 	   32.0000 	   18.4960
    2.7085 	   56.0070 	    6.0000 	   32.0000 	   18.6940
    2.6017 	   56.1940 	    6.0000 	   32.0000 	   18.8810
    2.7237 	   56.3790 	    6.0000 	   32.0000 	   19.0661
    2.7237 	   56.5530 	    6.0000 	   32.0000 	   19.2401
    2.7848 	   56.7400 	    6.0000 	   32.0000 	   19.4271
    2.8763 	   56.9300 	    6.0000 	   32.0000 	   19.6171
    2.6017 	   57.1250 	    6.0000 	   32.0000 	   19.8121
    2.7085 	   57.3050 	    6.0000 	   32.0000 	   19.9921
    2.8000 	   57.4840 	    6.0000 	   32.0000 	   20.1711
    2.7695 	   57.6770 	    6.0000 	   32.0000 	   20.3641
    2.2202 	   57.8690 	    6.0000 	   32.0000 	   20.5561
    2.7237 	   58.0420 	    6.0000 	   32.0000 	   20.7292
    2.6932 	   58.2310 	    6.0000 	   32.0000 	   20.9182
    2.6627 	   58.4090 	    6.0000 	   32.0000 	   21.0962
    2.6474 	   58.5780 	    6.0000 	   32.0000 	   21.2652
    2.5559 	   58.7590 	    6.0000 	   32.0000 	   21.4462
    2.8305 	   58.9330 	    6.0000 	   32.0000 	   21.6202
    2.7390 	   59.1100 	    6.0000 	   32.0000 	   21.7972
    2.6322 	   59.2960 	    6.0000 	   32.0000 	   21.9832
    2.7695 	   59.4790 	    6.0000 	   32.0000 	   22.1662
    2.7085 	   59.6540 	    6.0000 	   32.0000 	   22.3412
    2.7237 	   59.8450 	    6.0000 	   32.0000 	   22.5323
    2.6474 	   60.0500 	    6.0000 	   32.0000 	   22.7373
    2.5711 	   60.2410 	    6.0000 	   32.0000 	   22.9283
    2.7695 	   60.4170 	    6.0000 	   32.0000 	   23.1043
    2.6017 	   60.6000 	    6.0000 	   32.0000 	   23.2873
    2.5711 	   60.7880 	    6.0000 	   32.0000 	   23.4753
    2.7390 	   60.9820 	    6.0000 	   32.0000 	   23.6693
    2.6780 	   61.1780 	    6.0000 	   32.0000 	   23.8653
    2.8153 	   61.3580 	    6.0000 	   32.0000 	   24.0453
    2.7085 	   61.5350 	    6.0000 	   32.0000 	   24.2224
    2.7695 	   61.7300 	    6.0000 	   32.0000 	   24.4174
    2.5864 	   61.9240 	    6.0000 	   32.0000 	   24.6114
    2.6932 	   62.1330 	    6.0000 	   32.0000 	   24.8204
    2.6780 	   62.3130 	    6.0000 	   32.0000 	   25.0004
    2.6474 	   62.4900 	    6.0000 	   32.0000 	   25.1774
    2.5406 	   62.6870 	    6.0000 	   32.0000 	   25.3744
    2.5711 	   62.8690 	    6.0000 	   32.0000 	   25.5564
    2.6474 	   63.0450 	    6.0000 	   32.0000 	   25.7324
    2.7543 	   63.2260 	    6.0000 	   32.0000 	   25.9135
    2.6017 	   63.4080 	    6.0000 	   32.0000 	   26.0955
    2.8000 	   63.5850 	    6.0000 	   32.0000 	   26.2725
    2.6932 	   63.7640 	    6.0000 	   32.0000 	   26.4515
    2.6627 	   63.9710 	    6.0000 	   32.0000 	   26.6585
    2.7543 	   64.1720 	    6.0000 	   32.0000 	   26.8595
    2.7848 	   64.3620 	    6.0000 	   32.0000 	   27.0495
    2.6017 	   64.5400 	    6.0000 	   32.0000 	   27.2275
    2.7543 	   64.7250 	    6.0000 	   32.0000 	   27.4125
    2.7390 	   64.9200 	    6.0000 	   32.0000 	   27.6075
    2.6322 	   65.1080 	    6.0000 	   32.0000 	   27.7956
    2.6474 	   65.2930 	    6.0000 	   32.0000 	   27.9806
    2.7543 	   65.4730 	    6.0000 	   32.0000 	   28.1606
    2.6627 	   65.6600 	    6.0000 	   32.0000 	   28.3476
    2.7237 	   65.8530 	    6.0000 	   32.0000 	   28.5406
    2.8000 	   66.0480 	    6.0000 	   32.0000 	   28.7356
    2.6627 	   66.2480 	    6.0000 	   32.0000 	   28.9356
    2.7848 	   66.4280 	    6.0000 	   32.0000 	   29.1156
    2.5864 	   66.6120 	    6.0000 	   32.0000 	   29.2996
    2.7085 	   66.8110 	    6.0000 	   32.0000 	   29.4987
    2.7848 	   67.0120 	    6.0000 	   32.0000 	   29.6997
    2.7085 	   67.2150 	    6.0000 	   32.0000 	   29.9027
    2.6474 	   67.4050 	    6.0000 	   32.0000 	   30.0917
    2.7085 	   67.5840 	    6.0000 	   32.0000 	   30.2707
    2.7848 	   67.7770 	    6.0000 	   32.0000 	   30.4637
    2.6474 	   67.9740 	    6.0000 	   32.0000 	   30.6607
    2.6474 	   68.1730 	    6.0000 	   32.0000 	   30.8597
    2.7085 	   68.3530 	    6.0000 	   32.0000 	   31.0397
    2.8305 	   68.5330 	    6.0000 	   32.0000 	   31.2198
    2.5711 	   68.7280 	    6.0000 	   32.0000 	   31.4148
    2.7390 	   68.9250 	    6.0000 	   32.0000 	   31.6118
    2.7237 	   69.1250 	    6.0000 	   32.0000 	   31.8118
    2.6627 	   69.3200 	    6.0000 	   32.0000 	   32.0068
    2.6932 	   69.5000 	    6.0000 	   32.0000 	   32.1868
    2.7543 	   69.6800 	    6.0000 	   32.0000 	   32.3668
    2.8305 	   69.8790 	    6.0000 	   32.0000 	   32.5658
    2.6932 	   70.0780 	    6.0000 	   32.0000 	   32.7648
    2.7695 	   70.2780 	    6.0000 	   32.0000 	   32.9649
    2.7085 	   70.4620 	    6.0000 	   32.0000 	   33.1489
    2.6780 	   70.6530 	    6.0000 	   32.0000 	   33.3399
    2.6322 	   70.8450 	    6.0000 	   32.0000 	   33.5319
    2.6169 	   71.0430 	    6.0000 	   32.0000 	   33.7299
    2.6780 	   71.2480 	    6.0000 	   32.0000 	   33.9349
    2.7085 	   71.4340 	    6.0000 	   32.0000 	   34.1209
    2.6322 	   71.6180 	    6.0000 	   32.0000 	   34.3049
    2.6627 	   71.8150 	    6.0000 	   32.0000 	   34.5019
    2.6627 	   72.0150 	    6.0000 	   32.0000 	   34.7020
    2.7695 	   72.2240 	    6.0000 	   32.0000 	   34.9110
    2.7237 	   72.4170 	    6.0000 	   32.0000 	   35.1040
    2.7848 	   72.6050 	    6.0000 	   32.0000 	   35.2920
    2.6169 	   72.8070 	    6.0000 	   32.0000 	   35.4940
    2.6017 	   73.0050 	    6.0000 	   32.0000 	   35.6920
    2.7085 	   73.1920 	    6.0000 	   32.0000 	   35.8790
    2.6627 	   73.3790 	    6.0000 	   32.0000 	   36.0660
    2.8000 	   73.5650 	    6.0000 	   32.0000 	   36.2520
    2.7390 	   73.7480 	    6.0000 	   32.0000 	   36.4351
    2.6780 	   73.9460 	    6.0000 	   32.0000 	   36.6331
    2.7085 	   74.1500 	    6.0000 	   32.0000 	   36.8371
    2.6780 	   74.3450 	    6.0000 	   32.0000 	   37.0321
    2.6017 	   74.5450 	    6.0000 	   32.0000 	   37.2321
    2.8000 	   74.7330 	    6.0000 	   32.0000 	   37.4201
    2.3270 	   74.9180 	    6.0000 	   32.0000 	   37.6051
    2.6017 	   75.1000 	    6.0000 	   32.0000 	   37.7871
    2.8305 	   75.2850 	    6.0000 	   32.0000 	   37.9721
    2.5406 	   75.4730 	    6.0000 	   32.0000 	   38.1601
    2.6322 	   75.6510 	    6.0000 	   32.0000 	   38.3382
    2.6322 	   75.8490 	    6.0000 	   32.0000 	   38.5362
    2.7390 	   76.0470 	    6.0000 	   32.0000 	   38.7342
    2.6322 	   76.2360 	    6.0000 	   32.0000 	   38.9232
    2.5711 	   76.4260 	    6.0000 	   32.0000 	   39.1132
    2.6474 	   76.6100 	    6.0000 	   32.0000 	   39.2972
    2.6322 	   76.8040 	    6.0000 	   32.0000 	   39.4912
    2.6627 	   76.9990 	    6.0000 	   32.0000 	   39.6862
    2.7390 	   77.2010 	    6.0000 	   32.0000 	   39.8882
    2.6169 	   77.3980 	    6.0000 	   32.0000 	   40.0853
    2.6169 	   77.5840 	    6.0000 	   32.0000 	   40.2713
    2.5406 	   77.7690 	    6.0000 	   32.0000 	   40.4563
    2.6780 	   77.9520 	    6.0000 	   32.0000 	   40.6393
    2.7390 	   78.1450 	    6.0000 	   32.0000 	   40.8323
    2.5864 	   78.3420 	    6.0000 	   32.0000 	   41.0293
    2.6932 	   78.5310 	    6.0000 	   32.0000 	   41.2183
    2.6169 	   78.7270 	    6.0000 	   32.0000 	   41.4143
    2.7848 	   78.9330 	    6.0000 	   32.0000 	   41.6203
    2.7390 	   79.1390 	    6.0000 	   32.0000 	   41.8264
    2.6780 	   79.3350 	    6.0000 	   32.0000 	   42.0224
    2.5864 	   79.5280 	    6.0000 	   32.0000 	   42.2154
    2.6169 	   79.7140 	    6.0000 	   32.0000 	   42.4014
    2.8000 	   79.8970 	    6.0000 	   32.0000 	   42.5844
    2.6169 	   80.0880 	    6.0000 	   32.0000 	   42.7754
    2.6322 	   80.2750 	    6.0000 	   32.0000 	   42.9624
    2.7543 	   80.4610 	    6.0000 	   32.0000 	   43.1484
    2.7085 	   80.6510 	    6.0000 	   32.0000 	   43.3384
    2.6169 	   80.8540 	    6.0000 	   32.0000 	   43.5415
    2.6780 	   81.0580 	    6.0000 	   32.0000 	   43.7455
    2.6627 	   81.2520 	    6.0000 	   32.0000 	   43.9395
    2.7695 	   81.4430 	    6.0000 	   32.0000 	   44.1305
    2.4186 	   81.6340 	    6.0000 	   32.0000 	   44.3215
    2.6932 	   81.8210 	    6.0000 	   32.0000 	   44.5085
    2.5711 	   82.0200 	    6.0000 	   32.0000 	   44.7075
    2.6322 	   82.2250 	    6.0000 	   32.0000 	   44.9125
    2.5711 	   82.4140 	    6.0000 	   32.0000 	   45.1015
    2.8000 	   82.6010 	    6.0000 	   32.0000 	   45.2886
    2.7237 	   82.7900 	    6.0000 	   32.0000 	   45.4776
    2.6322 	   82.9770 	    6.0000 	   32.0000 	   45.6646
    2.5711 	   83.1640 	    6.0000 	   32.0000 	   45.8516
    2.7390 	   83.3640 	    6.0000 	   32.0000 	   46.0516
    2.5559 	   83.5630 	    6.0000 	   32.0000 	   46.2506
    2.7390 	   83.7560 	    6.0000 	   32.0000 	   46.4436
    2.6474 	   83.9570 	    6.0000 	   32.0000 	   46.6446
    2.6169 	   84.1700 	    6.0000 	   32.0000 	   46.8576
    2.8153 	   84.3780 	    6.0000 	   32.0000 	   47.0657
    2.6474 	   84.5840 	    6.0000 	   32.0000 	   47.2717
    2.7543 	   84.7740 	    6.0000 	   32.0000 	   47.4617
    2.6780 	   84.9760 	    6.0000 	   32.0000 	   47.6627
    2.4033 	   85.1770 	    6.0000 	   32.0000 	   47.8637
    2.8000 	   85.3650 	    6.0000 	   32.0000 	   48.0517
    2.4033 	   85.5640 	    6.0000 	   32.0000 	   48.2507
    2.8611 	   85.7570 	    6.0000 	   32.0000 	   48.4437
    2.7237 	   85.9560 	    6.0000 	   32.0000 	   48.6427
    2.8458 	   86.1580 	    6.0000 	   32.0000 	   48.8448
    2.6169 	   86.3510 	    6.0000 	   32.0000 	   49.0378
    2.6932 	   86.5390 	    6.0000 	   32.0000 	   49.2258
    2.6932 	   86.7320 	    6.0000 	   32.0000 	   49.4188
    2.5254 	   86.9250 	    6.0000 	   32.0000 	   49.6118
    2.6169 	   87.1150 	    6.0000 	   32.0000 	   49.8018
    2.7848 	   87.3150 	    6.0000 	   32.0000 	   50.0018
    2.6169 	   87.5170 	    6.0000 	   32.0000 	   50.2038
    2.6322 	   87.7140 	    6.0000 	   32.0000 	   50.4009
    2.7085 	   87.9120 	    6.0000 	   32.0000 	   50.5989
    2.6932 	   88.1220 	    6.0000 	   32.0000 	   50.8089
    2.7543 	   88.3210 	    6.0000 	   32.0000 	   51.0079
    2.5864 	   88.5120 	    6.0000 	   32.0000 	   51.1989
    2.6169 	   88.7050 	    6.0000 	   32.0000 	   51.3919
    2.6627 	   88.8990 	    6.0000 	   32.0000 	   51.5859
    2.8153 	   89.1100 	    6.0000 	   32.0000 	   51.7969
    2.6780 	   89.3170 	    6.0000 	   32.0000 	   52.0039
    2.7543 	   89.5190 	    6.0000 	   32.0000 	   52.2060
    2.6627 	   89.7190 	    6.0000 	   32.0000 	   52.4060
    2.5101 	   89.9110 	    6.0000 	   32.0000 	   52.5980
    2.5864 	   90.1220 	    6.0000 	   32.0000 	   52.8090
    2.6627 	   90.3240 	    6.0000 	   32.0000 	   53.0110
    2.8000 	   90.5190 	    6.0000 	   32.0000 	   53.2060
    2.6932 	   90.7160 	    6.0000 	   32.0000 	   53.4030
    2.5864 	   90.9130 	    6.0000 	   32.0000 	   53.6000
    2.6322 	   91.1210 	    6.0000 	   32.0000 	   53.8080
    2.7390 	   91.3340 	    6.0000 	   32.0000 	   54.0211
    2.7085 	   91.5360 	    6.0000 	   32.0000 	   54.2231
    2.4948 	   91.7310 	    6.0000 	   32.0000 	   54.4181
    2.6017 	   91.9270 	    6.0000 	   32.0000 	   54.6141
    2.4643 	   92.1410 	    6.0000 	   32.0000 	   54.8281
    2.2202 	   92.3430 	    6.0000 	   32.0000 	   55.0301
    2.2202 	   92.5420 	    6.0000 	   32.0000 	   55.2291
    2.2202 	   92.7370 	    6.0000 	   32.0000 	   55.4241
    2.0829 	   92.9270 	    6.0000 	   32.0000 	   55.6142
    1.9913 	   93.1410 	    6.0000 	   32.0000 	   55.8282
    2.0218 	   93.3370 	    6.0000 	   32.0000 	   56.0242
    2.0829 	   93.5300 	    6.0000 	   32.0000 	   56.2172
    1.9913 	   93.7270 	    6.0000 	   32.0000 	   56.4142
    1.8692 	   93.9210 	    6.0000 	   32.0000 	   56.6082
    1.8997 	   94.1380 	    6.0000 	   32.0000 	   56.8252
    1.9150 	   94.3450 	    6.0000 	   32.0000 	   57.0322
    1.4878 	   94.5580 	    6.0000 	   32.0000 	   57.2452
    1.7319 	   94.7640 	    6.0000 	   32.0000 	   57.4513
    2.0066 	   94.9590 	    6.0000 	   32.0000 	   57.6463
    1.6403 	   95.1650 	    6.0000 	   32.0000 	   57.8523
    1.8082 	   95.3830 	    6.0000 	   32.0000 	   58.0703
    1.6709 	   95.5830 	    6.0000 	   32.0000 	   58.2703
    1.7624 	   95.7890 	    6.0000 	   32.0000 	   58.4763
    1.5488 	   95.9970 	    6.0000 	   32.0000 	   58.6843
    1.7014 	   96.2250 	    6.0000 	   32.0000 	   58.9123
    1.5183 	   96.4280 	    6.0000 	   32.0000 	   59.1153
    1.6403 	   96.6280 	    6.0000 	   32.0000 	   59.3154
    1.5183 	   96.8300 	    6.0000 	   32.0000 	   59.5174
    1.4725 	   97.0320 	    6.0000 	   32.0000 	   59.7194
    1.2284 	   97.2510 	    6.0000 	   32.0000 	   59.9384
    1.4115 	   97.4570 	    6.0000 	   33.0000 	    0.1444
    1.3199 	   97.6530 	    6.0000 	   33.0000 	    0.3404
    1.5488 	   97.8550 	    6.0000 	   33.0000 	    0.5424
    1.3352 	   98.0630 	    6.0000 	   33.0000 	    0.7504
    1.3657 	   98.2700 	    6.0000 	   33.0000 	    0.9575
    1.3199 	   98.4760 	    6.0000 	   33.0000 	    1.1635
    1.3962 	   98.6760 	    6.0000 	   33.0000 	    1.3635
    1.2894 	   98.8820 	    6.0000 	   33.0000 	    1.5695
    1.4267 	   99.0770 	    6.0000 	   33.0000 	    1.7635
    1.3504 	   99.2830 	    6.0000 	   33.0000 	    1.9705
    1.2284 	   99.4920 	    6.0000 	   33.0000 	    2.1795
    0.9384 	   99.7080 	    6.0000 	   33.0000 	    2.3955
    1.2284 	   99.9150 	    6.0000 	   33.0000 	    2.6025
    1.2436 	  100.1300 	    6.0000 	   33.0000 	    2.8176
    1.1368 	  100.3300 	    6.0000 	   33.0000 	    3.0176
    1.1368 	  100.5390 	    6.0000 	   33.0000 	    3.2266
    1.3199 	  100.7480 	    6.0000 	   33.0000 	    3.4356
    1.3046 	  100.9780 	    6.0000 	   33.0000 	    3.6656
    1.2894 	  101.1850 	    6.0000 	   33.0000 	    3.8726
    1.1673 	  101.3820 	    6.0000 	   33.0000 	    4.0696
    1.2131 	  101.5970 	    6.0000 	   33.0000 	    4.2846
    1.1368 	  101.8160 	    6.0000 	   33.0000 	    4.5037
    1.3657 	  102.0200 	    6.0000 	   33.0000 	    4.7067
    1.1673 	  102.2250 	    6.0000 	   33.0000 	    4.9127
    1.3046 	  102.4260 	    6.0000 	   33.0000 	    5.1127
    1.1368 	  102.6270 	    6.0000 	   33.0000 	    5.3137
    1.1368 	  102.8280 	    6.0000 	   33.0000 	    5.5147
    1.1063 	  103.0320 	    6.0000 	   33.0000 	    5.7187
    1.0452 	  103.2350 	    6.0000 	   33.0000 	    5.9217
    1.1063 	  103.4500 	    6.0000 	   33.0000 	    6.1368
    1.0605 	  103.6550 	    6.0000 	   33.0000 	    6.3418
    1.0147 	  103.8730 	    6.0000 	   33.0000 	    6.5598
    1.1063 	  104.0780 	    6.0000 	   33.0000 	    6.7648
    1.1215 	  104.2760 	    6.0000 	   33.0000 	    6.9628
    1.1521 	  104.4810 	    6.0000 	   33.0000 	    7.1678
    0.7858 	  104.6970 	    6.0000 	   33.0000 	    7.3838
    1.2284 	  104.9060 	    6.0000 	   33.0000 	    7.5928
    1.1368 	  105.1160 	    6.0000 	   33.0000 	    7.8028
    1.0300 	  105.3160 	    6.0000 	   33.0000 	    8.0029
    1.0300 	  105.5240 	    6.0000 	   33.0000 	    8.2109
    1.0147 	  105.7330 	    6.0000 	   33.0000 	    8.4199
    0.9689 	  105.9350 	    6.0000 	   33.0000 	    8.6219
    0.9537 	  106.1460 	    6.0000 	   33.0000 	    8.8329
    1.0452 	  106.3550 	    6.0000 	   33.0000 	    9.0419
    0.9537 	  106.5580 	    6.0000 	   33.0000 	    9.2449
    0.9232 	  106.7580 	    6.0000 	   33.0000 	    9.4449
    0.6180 	  106.9620 	    6.0000 	   33.0000 	    9.6490
    0.9384 	  107.1710 	    6.0000 	   33.0000 	    9.8580
    1.0147 	  107.3720 	    6.0000 	   33.0000 	   10.0590
    0.9232 	  107.5730 	    6.0000 	   33.0000 	   10.2600
    0.9232 	  107.7910 	    6.0000 	   33.0000 	   10.4780
    0.8927 	  107.9990 	    6.0000 	   33.0000 	   10.6860
    0.8621 	  108.2020 	    6.0000 	   33.0000 	   10.8890
    0.8011 	  108.4050 	    6.0000 	   33.0000 	   11.0920
    0.8316 	  108.6190 	    6.0000 	   33.0000 	   11.3060
    0.8774 	  108.8380 	    6.0000 	   33.0000 	   11.5251
    0.9689 	  109.0450 	    6.0000 	   33.0000 	   11.7321
    0.9232 	  109.2500 	    6.0000 	   33.0000 	   11.9371
    1.0300 	  109.4580 	    6.0000 	   33.0000 	   12.1451
    0.9842 	  109.6810 	    6.0000 	   33.0000 	   12.3681
    0.9384 	  109.9030 	    6.0000 	   33.0000 	   12.5901
    0.8469 	  110.1200 	    6.0000 	   33.0000 	   12.8071
    0.8469 	  110.3340 	    6.0000 	   33.0000 	   13.0211
    0.8164 	  110.5400 	    6.0000 	   33.0000 	   13.2272
    0.9079 	  110.7500 	    6.0000 	   33.0000 	   13.4372
    0.8621 	  110.9590 	    6.0000 	   33.0000 	   13.6462
    0.8316 	  111.1750 	    6.0000 	   33.0000 	   13.8622
    0.8469 	  111.3790 	    6.0000 	   33.0000 	   14.0662
    1.0605 	  111.5890 	    6.0000 	   33.0000 	   14.2762
    0.7706 	  111.7910 	    6.0000 	   33.0000 	   14.4782
    0.8621 	  112.0000 	    6.0000 	   33.0000 	   14.6872
    0.6180 	  112.2220 	    6.0000 	   33.0000 	   14.9083
    0.8469 	  112.4260 	    6.0000 	   33.0000 	   15.1133
    0.9232 	  112.6470 	    6.0000 	   33.0000 	   15.3343
    0.8469 	  112.8560 	    6.0000 	   33.0000 	   15.5433
    0.7095 	  113.0700 	    6.0000 	   33.0000 	   15.7573
    0.7553 	  113.2850 	    6.0000 	   33.0000 	   15.9723
    0.7858 	  113.4980 	    6.0000 	   33.0000 	   16.1853
    0.8011 	  113.7100 	    6.0000 	   33.0000 	   16.3973
    0.8621 	  113.9160 	    6.0000 	   33.0000 	   16.6033
    0.7401 	  114.1370 	    6.0000 	   33.0000 	   16.8244
    0.6943 	  114.3480 	    6.0000 	   33.0000 	   17.0354
    0.8774 	  114.5540 	    6.0000 	   33.0000 	   17.2414
    0.8927 	  114.7630 	    6.0000 	   33.0000 	   17.4504
    0.7553 	  114.9700 	    6.0000 	   33.0000 	   17.6574
    0.6943 	  115.1960 	    6.0000 	   33.0000 	   17.8834
    0.6943 	  115.4000 	    6.0000 	   33.0000 	   18.0864
    0.7553 	  115.6140 	    6.0000 	   33.0000 	   18.3014
    0.7095 	  115.8430 	    6.0000 	   33.0000 	   18.5305
    0.6485 	  116.0520 	    6.0000 	   33.0000 	   18.7395
    0.6180 	  116.2600 	    6.0000 	   33.0000 	   18.9475
    0.6943 	  116.4670 	    6.0000 	   33.0000 	   19.1545
    0.7706 	  116.6800 	    6.0000 	   33.0000 	   19.3675
    0.6943 	  116.8850 	    6.0000 	   33.0000 	   19.5725
    0.7095 	  117.0920 	    6.0000 	   33.0000 	   19.7795
    0.4807 	  117.3120 	    6.0000 	   33.0000 	   19.9995
    0.7706 	  117.5240 	    6.0000 	   33.0000 	   20.2116
    0.6485 	  117.7550 	    6.0000 	   33.0000 	   20.4426
    0.8469 	  117.9890 	    6.0000 	   33.0000 	   20.6766
    0.7248 	  118.2110 	    6.0000 	   33.0000 	   20.8986
    0.6943 	  118.4190 	    6.0000 	   33.0000 	   21.1066
    0.5417 	  118.6410 	    6.0000 	   33.0000 	   21.3286
    0.8316 	  118.8650 	    6.0000 	   33.0000 	   21.5526
    0.6180 	  119.0830 	    6.0000 	   33.0000 	   21.7706
    0.7858 	  119.2960 	    6.0000 	   33.0000 	   21.9837
    0.6790 	  119.5130 	    6.0000 	   33.0000 	   22.2007
    0.8927 	  119.7220 	    6.0000 	   33.0000 	   22.4097
    0.5722 	  119.9310 	    6.0000 	   33.0000 	   22.6177
    0.7248 	  120.1430 	    6.0000 	   33.0000 	   22.8297
    0.6485 	  120.3530 	    6.0000 	   33.0000 	   23.0397
    0.7401 	  120.5590 	    6.0000 	   33.0000 	   23.2457
    0.5875 	  120.7660 	    6.0000 	   33.0000 	   23.4527
    0.6638 	  120.9920 	    6.0000 	   33.0000 	   23.6788
    0.6485 	  121.2160 	    6.0000 	   33.0000 	   23.9028
    0.6180 	  121.4280 	    6.0000 	   33.0000 	   24.1148
    0.6027 	  121.6390 	    6.0000 	   33.0000 	   24.3258
    0.7248 	  121.8740 	    6.0000 	   33.0000 	   24.5608
    0.6485 	  122.1240 	    6.0000 	   33.0000 	   24.8108
    0.6638 	  122.3490 	    6.0000 	   33.0000 	   25.0358
    0.6332 	  122.5770 	    6.0000 	   33.0000 	   25.2638
    0.6332 	  122.7920 	    6.0000 	   33.0000 	   25.4789
    0.7706 	  123.0060 	    6.0000 	   33.0000 	   25.6929
    0.7095 	  123.2300 	    6.0000 	   33.0000 	   25.9169
    0.6332 	  123.4400 	    6.0000 	   33.0000 	   26.1269
    0.6332 	  123.6480 	    6.0000 	   33.0000 	   26.3349
    0.6485 	  123.8560 	    6.0000 	   33.0000 	   26.5429
    0.6180 	  124.0650 	    6.0000 	   33.0000 	   26.7519
    0.6332 	  124.2820 	    6.0000 	   33.0000 	   26.9689
    0.6943 	  124.4920 	    6.0000 	   33.0000 	   27.1790
    0.6485 	  124.7160 	    6.0000 	   33.0000 	   27.4030
    0.8316 	  124.9320 	    6.0000 	   33.0000 	   27.6190
    0.7095 	  125.1460 	    6.0000 	   33.0000 	   27.8330
    0.6180 	  125.3690 	    6.0000 	   33.0000 	   28.0560
    0.5570 	  125.5750 	    6.0000 	   33.0000 	   28.2610
    0.5875 	  125.7930 	    6.0000 	   33.0000 	   28.4800
    0.6332 	  126.0200 	    6.0000 	   33.0000 	   28.7070
    0.6485 	  126.2440 	    6.0000 	   33.0000 	   28.9311
    0.6027 	  126.4600 	    6.0000 	   33.0000 	   29.1471
    0.6943 	  126.6820 	    6.0000 	   33.0000 	   29.3691
    0.7095 	  126.9060 	    6.0000 	   33.0000 	   29.5931
    0.4654 	  127.1380 	    6.0000 	   33.0000 	   29.8251
    0.4959 	  127.3650 	    6.0000 	   33.0000 	   30.0521
    0.5722 	  127.5850 	    6.0000 	   33.0000 	   30.2721
    0.5417 	  127.8140 	    6.0000 	   33.0000 	   30.5011
    0.6180 	  128.0350 	    6.0000 	   33.0000 	   30.7222
    0.5875 	  128.2520 	    6.0000 	   33.0000 	   30.9392
    0.5112 	  128.4760 	    6.0000 	   33.0000 	   31.1632
    0.4959 	  128.6940 	    6.0000 	   33.0000 	   31.3812
    0.5264 	  128.9170 	    6.0000 	   33.0000 	   31.6042
    0.5570 	  129.1540 	    6.0000 	   33.0000 	   31.8412
    0.5112 	  129.3710 	    6.0000 	   33.0000 	   32.0582
    0.5417 	  129.5910 	    6.0000 	   33.0000 	   32.2782
    0.5417 	  129.8220 	    6.0000 	   33.0000 	   32.5093
    0.4501 	  130.0570 	    6.0000 	   33.0000 	   32.7443
    0.4807 	  130.2890 	    6.0000 	   33.0000 	   32.9763
    0.5875 	  130.5060 	    6.0000 	   33.0000 	   33.1933
    0.7553 	  130.7230 	    6.0000 	   33.0000 	   33.4103
    0.6485 	  130.8560 	    6.0000 	   33.0000 	   33.5433