File: instron/independence/size/length/b_l15w3_40_30.txt
Thayer School of Engineering        Instron 4442 Mechanical Testing System
7/5/2018 11:54:19 PM

  Force (N)	Extension (mm)	Not Used	Not Used	Not Used	     Hour	    Minute	    Second
    0.8011 	    0.5130 	   23.0000 	   55.0000 	   24.6322
    0.7706 	    0.5860 	   23.0000 	   55.0000 	   24.7782
    0.6332 	    0.6440 	   23.0000 	   55.0000 	   24.8942
    0.6027 	    0.7180 	   23.0000 	   55.0000 	   25.0422
    0.5264 	    0.7995 	   23.0000 	   55.0000 	   25.2052
    0.8469 	    0.8800 	   23.0000 	   55.0000 	   25.3662
    0.7095 	    0.9500 	   23.0000 	   55.0000 	   25.5063
    0.6790 	    1.0305 	   23.0000 	   55.0000 	   25.6673
    0.7706 	    1.0975 	   23.0000 	   55.0000 	   25.8013
    0.7706 	    1.1620 	   23.0000 	   55.0000 	   25.9303
    0.6790 	    1.2425 	   23.0000 	   55.0000 	   26.0913
    0.8011 	    1.3065 	   23.0000 	   55.0000 	   26.2193
    0.6485 	    1.3785 	   23.0000 	   55.0000 	   26.3633
    0.6485 	    1.4570 	   23.0000 	   55.0000 	   26.5203
    0.6943 	    1.5315 	   23.0000 	   55.0000 	   26.6693
    0.8469 	    1.5985 	   23.0000 	   55.0000 	   26.8023
    0.7858 	    1.6560 	   23.0000 	   55.0000 	   26.9183
    0.7553 	    1.7030 	   23.0000 	   55.0000 	   27.0123
    0.8316 	    1.7525 	   23.0000 	   55.0000 	   27.1113
    0.6943 	    1.8015 	   23.0000 	   55.0000 	   27.2093
    0.8164 	    1.8495 	   23.0000 	   55.0000 	   27.3054
    0.8621 	    1.8995 	   23.0000 	   55.0000 	   27.4054
    0.6638 	    1.9500 	   23.0000 	   55.0000 	   27.5064
    0.8011 	    2.0005 	   23.0000 	   55.0000 	   27.6074
    0.7706 	    2.0490 	   23.0000 	   55.0000 	   27.7044
    0.8011 	    2.0980 	   23.0000 	   55.0000 	   27.8024
    0.8469 	    2.1450 	   23.0000 	   55.0000 	   27.8964
    0.6943 	    2.1930 	   23.0000 	   55.0000 	   27.9924
    0.7706 	    2.2420 	   23.0000 	   55.0000 	   28.0904
    0.6790 	    2.2900 	   23.0000 	   55.0000 	   28.1864
    0.8469 	    2.3385 	   23.0000 	   55.0000 	   28.2834
    0.8164 	    2.3865 	   23.0000 	   55.0000 	   28.3794
    0.8164 	    2.4370 	   23.0000 	   55.0000 	   28.4804
    0.8164 	    2.4850 	   23.0000 	   55.0000 	   28.5764
    0.6943 	    2.5330 	   23.0000 	   55.0000 	   28.6724
    0.7401 	    2.5845 	   23.0000 	   55.0000 	   28.7754
    0.7248 	    2.6355 	   23.0000 	   55.0000 	   28.8774
    0.6943 	    2.6855 	   23.0000 	   55.0000 	   28.9774
    0.6485 	    2.7345 	   23.0000 	   55.0000 	   29.0755
    0.8316 	    2.7825 	   23.0000 	   55.0000 	   29.1715
    0.9384 	    2.8275 	   23.0000 	   55.0000 	   29.2615
    0.8927 	    2.8760 	   23.0000 	   55.0000 	   29.3585
    0.7248 	    2.9235 	   23.0000 	   55.0000 	   29.4535
    0.7706 	    2.9705 	   23.0000 	   55.0000 	   29.5475
    0.7706 	    3.0165 	   23.0000 	   55.0000 	   29.6395
    0.9079 	    3.0650 	   23.0000 	   55.0000 	   29.7365
    0.6485 	    3.1120 	   23.0000 	   55.0000 	   29.8305
    0.8011 	    3.1605 	   23.0000 	   55.0000 	   29.9275
    0.7858 	    3.2085 	   23.0000 	   55.0000 	   30.0235
    0.8164 	    3.2555 	   23.0000 	   55.0000 	   30.1175
    0.7706 	    3.3020 	   23.0000 	   55.0000 	   30.2105
    0.8164 	    3.3495 	   23.0000 	   55.0000 	   30.3055
    0.8164 	    3.3965 	   23.0000 	   55.0000 	   30.3995
    0.7706 	    3.4405 	   23.0000 	   55.0000 	   30.4875
    0.7858 	    3.4870 	   23.0000 	   55.0000 	   30.5805
    0.6638 	    3.5285 	   23.0000 	   55.0000 	   30.6635
    0.8469 	    3.5710 	   23.0000 	   55.0000 	   30.7486
    0.8164 	    3.6150 	   23.0000 	   55.0000 	   30.8366
    0.8011 	    3.6600 	   23.0000 	   55.0000 	   30.9266
    0.7401 	    3.7075 	   23.0000 	   55.0000 	   31.0216
    0.8621 	    3.7540 	   23.0000 	   55.0000 	   31.1146
    0.8011 	    3.7995 	   23.0000 	   55.0000 	   31.2056
    0.8469 	    3.8425 	   23.0000 	   55.0000 	   31.2916
    0.7706 	    3.8860 	   23.0000 	   55.0000 	   31.3786
    0.8774 	    3.9280 	   23.0000 	   55.0000 	   31.4626
    0.8774 	    3.9860 	   23.0000 	   55.0000 	   31.5786
    0.6790 	    4.0280 	   23.0000 	   55.0000 	   31.6626
    0.8316 	    4.0705 	   23.0000 	   55.0000 	   31.7476
    0.8011 	    4.1115 	   23.0000 	   55.0000 	   31.8296
    0.7706 	    4.1550 	   23.0000 	   55.0000 	   31.9166
    0.6943 	    4.1965 	   23.0000 	   55.0000 	   31.9996
    0.8164 	    4.2400 	   23.0000 	   55.0000 	   32.0866
    0.7553 	    4.2825 	   23.0000 	   55.0000 	   32.1716
    0.7706 	    4.3250 	   23.0000 	   55.0000 	   32.2566
    0.8316 	    4.3700 	   23.0000 	   55.0000 	   32.3456
    0.7858 	    4.4130 	   23.0000 	   55.0000 	   32.4326
    0.7553 	    4.4580 	   23.0000 	   55.0000 	   32.5227
    0.7553 	    4.5020 	   23.0000 	   55.0000 	   32.6107
    0.9232 	    4.5470 	   23.0000 	   55.0000 	   32.7007
    0.9232 	    4.5880 	   23.0000 	   55.0000 	   32.7827
    0.7401 	    4.6320 	   23.0000 	   55.0000 	   32.8707
    0.7706 	    4.6725 	   23.0000 	   55.0000 	   32.9517
    0.5112 	    4.7140 	   23.0000 	   55.0000 	   33.0347
    0.8164 	    4.7595 	   23.0000 	   55.0000 	   33.1257
    0.7553 	    4.8095 	   23.0000 	   55.0000 	   33.2257
    0.8011 	    4.8590 	   23.0000 	   55.0000 	   33.3247
    0.6638 	    4.9075 	   23.0000 	   55.0000 	   33.4217
    0.8164 	    4.9575 	   23.0000 	   55.0000 	   33.5217
    0.8621 	    5.0060 	   23.0000 	   55.0000 	   33.6187
    0.8164 	    5.0545 	   23.0000 	   55.0000 	   33.7157
    0.6790 	    5.1005 	   23.0000 	   55.0000 	   33.8077
    0.6943 	    5.1480 	   23.0000 	   55.0000 	   33.9027
    0.7553 	    5.1915 	   23.0000 	   55.0000 	   33.9897
    0.9079 	    5.2345 	   23.0000 	   55.0000 	   34.0757
    0.6943 	    5.2825 	   23.0000 	   55.0000 	   34.1717
    0.8164 	    5.3305 	   23.0000 	   55.0000 	   34.2678
    0.6943 	    5.3805 	   23.0000 	   55.0000 	   34.3678
    0.9232 	    5.4285 	   23.0000 	   55.0000 	   34.4638
    0.8316 	    5.4770 	   23.0000 	   55.0000 	   34.5608
    0.8621 	    5.5265 	   23.0000 	   55.0000 	   34.6598
    0.8011 	    5.5780 	   23.0000 	   55.0000 	   34.7628
    0.8621 	    5.6225 	   23.0000 	   55.0000 	   34.8518
    0.8621 	    5.6675 	   23.0000 	   55.0000 	   34.9418
    0.8774 	    5.7090 	   23.0000 	   55.0000 	   35.0248
    0.8621 	    5.7535 	   23.0000 	   55.0000 	   35.1138
    0.7553 	    5.8015 	   23.0000 	   55.0000 	   35.2098
    0.7706 	    5.8505 	   23.0000 	   55.0000 	   35.3078
    0.8774 	    5.8995 	   23.0000 	   55.0000 	   35.4058
    0.6790 	    5.9500 	   23.0000 	   55.0000 	   35.5068
    0.8011 	    5.9985 	   23.0000 	   55.0000 	   35.6038
    0.7858 	    6.0475 	   23.0000 	   55.0000 	   35.7018
    0.8316 	    6.1180 	   23.0000 	   55.0000 	   35.8428
    0.7248 	    6.1615 	   23.0000 	   55.0000 	   35.9298
    0.8927 	    6.2045 	   23.0000 	   55.0000 	   36.0159
    0.8774 	    6.2485 	   23.0000 	   55.0000 	   36.1039
    0.9079 	    6.2905 	   23.0000 	   55.0000 	   36.1879
    0.8011 	    6.3335 	   23.0000 	   55.0000 	   36.2739
    0.7553 	    6.3765 	   23.0000 	   55.0000 	   36.3589
    0.7553 	    6.4185 	   23.0000 	   55.0000 	   36.4429
    0.6943 	    6.4610 	   23.0000 	   55.0000 	   36.5279
    0.8774 	    6.5035 	   23.0000 	   55.0000 	   36.6129
    0.8316 	    6.5460 	   23.0000 	   55.0000 	   36.6979
    0.6790 	    6.5905 	   23.0000 	   55.0000 	   36.7869
    0.7858 	    6.6380 	   23.0000 	   55.0000 	   36.8819
    0.7248 	    6.6810 	   23.0000 	   55.0000 	   36.9679
    0.9384 	    6.7225 	   23.0000 	   55.0000 	   37.0509
    0.8011 	    6.7655 	   23.0000 	   55.0000 	   37.1369
    0.8927 	    6.8130 	   23.0000 	   55.0000 	   37.2319
    0.7553 	    6.8635 	   23.0000 	   55.0000 	   37.3329
    0.8011 	    6.9120 	   23.0000 	   55.0000 	   37.4299
    0.9689 	    6.9625 	   23.0000 	   55.0000 	   37.5309
    0.8011 	    7.0115 	   23.0000 	   55.0000 	   37.6289
    0.9079 	    7.0610 	   23.0000 	   55.0000 	   37.7280
    0.8774 	    7.1070 	   23.0000 	   55.0000 	   37.8200
    0.8774 	    7.1540 	   23.0000 	   55.0000 	   37.9140
    0.7553 	    7.2000 	   23.0000 	   55.0000 	   38.0060
    0.8164 	    7.2465 	   23.0000 	   55.0000 	   38.0990
    0.8469 	    7.2950 	   23.0000 	   55.0000 	   38.1960
    0.7553 	    7.3455 	   23.0000 	   55.0000 	   38.2970
    0.8316 	    7.3960 	   23.0000 	   55.0000 	   38.3980
    0.8774 	    7.4485 	   23.0000 	   55.0000 	   38.5030
    0.8774 	    7.4985 	   23.0000 	   55.0000 	   38.6030
    0.8164 	    7.5490 	   23.0000 	   55.0000 	   38.7040
    0.9384 	    7.5965 	   23.0000 	   55.0000 	   38.7990
    0.7553 	    7.6420 	   23.0000 	   55.0000 	   38.8900
    0.8621 	    7.6865 	   23.0000 	   55.0000 	   38.9790
    0.9384 	    7.7300 	   23.0000 	   55.0000 	   39.0660
    0.9232 	    7.7785 	   23.0000 	   55.0000 	   39.1630
    0.9232 	    7.8265 	   23.0000 	   55.0000 	   39.2590
    0.5264 	    7.8790 	   23.0000 	   55.0000 	   39.3640
    0.8774 	    7.9295 	   23.0000 	   55.0000 	   39.4650
    0.7706 	    7.9795 	   23.0000 	   55.0000 	   39.5651
    0.9079 	    8.0290 	   23.0000 	   55.0000 	   39.6641
    0.5875 	    8.0800 	   23.0000 	   55.0000 	   39.7661
    0.7553 	    8.1265 	   23.0000 	   55.0000 	   39.8591
    0.8316 	    8.1695 	   23.0000 	   55.0000 	   39.9451
    1.0300 	    8.2135 	   23.0000 	   55.0000 	   40.0331
    0.8011 	    8.2555 	   23.0000 	   55.0000 	   40.1161
    0.8011 	    8.2995 	   23.0000 	   55.0000 	   40.2051
    0.8011 	    8.3485 	   23.0000 	   55.0000 	   40.3031
    0.8774 	    8.3985 	   23.0000 	   55.0000 	   40.4031
    0.8621 	    8.4495 	   23.0000 	   55.0000 	   40.5051
    0.8621 	    8.4975 	   23.0000 	   55.0000 	   40.6011
    0.8621 	    8.5475 	   23.0000 	   55.0000 	   40.7011
    0.8164 	    8.5965 	   23.0000 	   55.0000 	   40.7991
    0.9537 	    8.6480 	   23.0000 	   55.0000 	   40.9021
    0.8164 	    8.6960 	   23.0000 	   55.0000 	   40.9981
    0.9689 	    8.7415 	   23.0000 	   55.0000 	   41.0891
    0.8621 	    8.7885 	   23.0000 	   55.0000 	   41.1831
    0.8927 	    8.8380 	   23.0000 	   55.0000 	   41.2822
    0.9079 	    8.8890 	   23.0000 	   55.0000 	   41.3842
    0.8774 	    8.9390 	   23.0000 	   55.0000 	   41.4842
    0.8621 	    8.9890 	   23.0000 	   55.0000 	   41.5842
    0.9537 	    9.0405 	   23.0000 	   55.0000 	   41.6872
    0.8774 	    9.0905 	   23.0000 	   55.0000 	   41.7872
    0.9232 	    9.1380 	   23.0000 	   55.0000 	   41.8822
    0.8164 	    9.1850 	   23.0000 	   55.0000 	   41.9762
    0.8774 	    9.2335 	   23.0000 	   55.0000 	   42.0732
    0.8164 	    9.2795 	   23.0000 	   55.0000 	   42.1652
    0.8316 	    9.3275 	   23.0000 	   55.0000 	   42.2612
    0.7858 	    9.3750 	   23.0000 	   55.0000 	   42.3562
    0.9995 	    9.4235 	   23.0000 	   55.0000 	   42.4532
    0.6638 	    9.4755 	   23.0000 	   55.0000 	   42.5572
    0.8774 	    9.5255 	   23.0000 	   55.0000 	   42.6572
    0.5264 	    9.5750 	   23.0000 	   55.0000 	   42.7562
    0.9995 	    9.6235 	   23.0000 	   55.0000 	   42.8532
    0.8316 	    9.6730 	   23.0000 	   55.0000 	   42.9522
    1.0147 	    9.7205 	   23.0000 	   55.0000 	   43.0473
    0.9842 	    9.7690 	   23.0000 	   55.0000 	   43.1443
    0.8621 	    9.8200 	   23.0000 	   55.0000 	   43.2463
    0.8927 	    9.8730 	   23.0000 	   55.0000 	   43.3523
    0.9384 	    9.9235 	   23.0000 	   55.0000 	   43.4533
    0.9232 	    9.9750 	   23.0000 	   55.0000 	   43.5563
    0.7248 	   10.0255 	   23.0000 	   55.0000 	   43.6573
    0.9232 	   10.0775 	   23.0000 	   55.0000 	   43.7613
    0.7706 	   10.1265 	   23.0000 	   55.0000 	   43.8593
    0.8316 	   10.1840 	   23.0000 	   55.0000 	   43.9743
    0.7858 	   10.2330 	   23.0000 	   55.0000 	   44.0723
    0.6638 	   10.2800 	   23.0000 	   55.0000 	   44.1663
    0.9537 	   10.3325 	   23.0000 	   55.0000 	   44.2713
    0.8164 	   10.3835 	   23.0000 	   55.0000 	   44.3733
    0.8011 	   10.4340 	   23.0000 	   55.0000 	   44.4743
    0.5417 	   10.4830 	   23.0000 	   55.0000 	   44.5723
    0.8774 	   10.5365 	   23.0000 	   55.0000 	   44.6793
    0.8927 	   10.5885 	   23.0000 	   55.0000 	   44.7834
    0.9232 	   10.6425 	   23.0000 	   55.0000 	   44.8914
    0.9537 	   10.6915 	   23.0000 	   55.0000 	   44.9894
    0.8927 	   10.7400 	   23.0000 	   55.0000 	   45.0864
    0.8621 	   10.7905 	   23.0000 	   55.0000 	   45.1874
    0.9384 	   10.8440 	   23.0000 	   55.0000 	   45.2944
    0.8927 	   10.8965 	   23.0000 	   55.0000 	   45.3994
    0.8621 	   10.9480 	   23.0000 	   55.0000 	   45.5024
    0.7706 	   11.0000 	   23.0000 	   55.0000 	   45.6064
    0.9384 	   11.0530 	   23.0000 	   55.0000 	   45.7124
    0.7248 	   11.1065 	   23.0000 	   55.0000 	   45.8194
    0.8774 	   11.1570 	   23.0000 	   55.0000 	   45.9204
    0.9384 	   11.2060 	   23.0000 	   55.0000 	   46.0184
    1.0147 	   11.2555 	   23.0000 	   55.0000 	   46.1174
    0.9689 	   11.3040 	   23.0000 	   55.0000 	   46.2144
    0.6332 	   11.3555 	   23.0000 	   55.0000 	   46.3164
    0.6332 	   11.4085 	   23.0000 	   55.0000 	   46.4234
    1.0452 	   11.4625 	   23.0000 	   55.0000 	   46.5315
    0.8164 	   11.5145 	   23.0000 	   55.0000 	   46.6355
    0.6790 	   11.5675 	   23.0000 	   55.0000 	   46.7415
    0.9384 	   11.6185 	   23.0000 	   55.0000 	   46.8435
    0.8774 	   11.6700 	   23.0000 	   55.0000 	   46.9465
    0.9995 	   11.7195 	   23.0000 	   55.0000 	   47.0455
    0.8927 	   11.7675 	   23.0000 	   55.0000 	   47.1415
    0.9842 	   11.8225 	   23.0000 	   55.0000 	   47.2515
    0.9384 	   11.8785 	   23.0000 	   55.0000 	   47.3635
    0.8927 	   11.9310 	   23.0000 	   55.0000 	   47.4685
    0.9232 	   11.9840 	   23.0000 	   55.0000 	   47.5745
    0.9537 	   12.0380 	   23.0000 	   55.0000 	   47.6825
    0.9995 	   12.0910 	   23.0000 	   55.0000 	   47.7885
    0.9232 	   12.1430 	   23.0000 	   55.0000 	   47.8925
    0.9079 	   12.1940 	   23.0000 	   55.0000 	   47.9945
    0.8316 	   12.2430 	   23.0000 	   55.0000 	   48.0925
    0.8164 	   12.2890 	   23.0000 	   55.0000 	   48.1845
    0.8316 	   12.3415 	   23.0000 	   55.0000 	   48.2896
    0.8621 	   12.3945 	   23.0000 	   55.0000 	   48.3956
    0.9232 	   12.4510 	   23.0000 	   55.0000 	   48.5086
    0.7858 	   12.5040 	   23.0000 	   55.0000 	   48.6146
    1.0147 	   12.5650 	   23.0000 	   55.0000 	   48.7366
    0.6790 	   12.6175 	   23.0000 	   55.0000 	   48.8416
    0.8164 	   12.6660 	   23.0000 	   55.0000 	   48.9386
    0.8774 	   12.7160 	   23.0000 	   55.0000 	   49.0386
    1.0758 	   12.7630 	   23.0000 	   55.0000 	   49.1326
    0.8621 	   12.8130 	   23.0000 	   55.0000 	   49.2326
    1.1215 	   12.8670 	   23.0000 	   55.0000 	   49.3406
    0.9689 	   12.9190 	   23.0000 	   55.0000 	   49.4446
    0.8316 	   12.9725 	   23.0000 	   55.0000 	   49.5516
    1.0605 	   13.0275 	   23.0000 	   55.0000 	   49.6616
    1.0300 	   13.0810 	   23.0000 	   55.0000 	   49.7686
    1.0452 	   13.1335 	   23.0000 	   55.0000 	   49.8736
    0.9537 	   13.1835 	   23.0000 	   55.0000 	   49.9737
    0.8621 	   13.2315 	   23.0000 	   55.0000 	   50.0697
    0.9689 	   13.2765 	   23.0000 	   55.0000 	   50.1597
    0.9537 	   13.3250 	   23.0000 	   55.0000 	   50.2567
    1.0452 	   13.3745 	   23.0000 	   55.0000 	   50.3557
    1.0147 	   13.4210 	   23.0000 	   55.0000 	   50.4487
    0.7858 	   13.4675 	   23.0000 	   55.0000 	   50.5417
    0.8469 	   13.5140 	   23.0000 	   55.0000 	   50.6347
    0.9079 	   13.5670 	   23.0000 	   55.0000 	   50.7407
    0.9537 	   13.6160 	   23.0000 	   55.0000 	   50.8387
    0.8774 	   13.6640 	   23.0000 	   55.0000 	   50.9347
    0.9995 	   13.7120 	   23.0000 	   55.0000 	   51.0307
    0.8774 	   13.7580 	   23.0000 	   55.0000 	   51.1227
    0.6485 	   13.8060 	   23.0000 	   55.0000 	   51.2187
    0.9232 	   13.8530 	   23.0000 	   55.0000 	   51.3127
    0.9384 	   13.8995 	   23.0000 	   55.0000 	   51.4057
    0.9079 	   13.9475 	   23.0000 	   55.0000 	   51.5017
    0.9537 	   14.0005 	   23.0000 	   55.0000 	   51.6077
    1.0147 	   14.0535 	   23.0000 	   55.0000 	   51.7137
    0.9537 	   14.1080 	   23.0000 	   55.0000 	   51.8228
    1.0147 	   14.1590 	   23.0000 	   55.0000 	   51.9248
    0.9232 	   14.2075 	   23.0000 	   55.0000 	   52.0218
    0.6943 	   14.2555 	   23.0000 	   55.0000 	   52.1178
    0.9232 	   14.3080 	   23.0000 	   55.0000 	   52.2228
    0.9079 	   14.3610 	   23.0000 	   55.0000 	   52.3288
    1.0300 	   14.4155 	   23.0000 	   55.0000 	   52.4378
    0.9842 	   14.4710 	   23.0000 	   55.0000 	   52.5488
    0.9232 	   14.5260 	   23.0000 	   55.0000 	   52.6588
    0.9689 	   14.5820 	   23.0000 	   55.0000 	   52.7708
    1.0452 	   14.6365 	   23.0000 	   55.0000 	   52.8798
    0.8774 	   14.6870 	   23.0000 	   55.0000 	   52.9808
    1.0605 	   14.7385 	   23.0000 	   55.0000 	   53.0838
    1.1521 	   14.7895 	   23.0000 	   55.0000 	   53.1858
    0.7858 	   14.8425 	   23.0000 	   55.0000 	   53.2918
    1.0147 	   14.8925 	   23.0000 	   55.0000 	   53.3918
    0.9079 	   14.9470 	   23.0000 	   55.0000 	   53.5009
    1.0758 	   15.0020 	   23.0000 	   55.0000 	   53.6109
    0.9689 	   15.0560 	   23.0000 	   55.0000 	   53.7189
    1.0147 	   15.1060 	   23.0000 	   55.0000 	   53.8179
    1.0300 	   15.1600 	   23.0000 	   55.0000 	   53.9259
    0.9079 	   15.2130 	   23.0000 	   55.0000 	   54.0319
    1.0300 	   15.2625 	   23.0000 	   55.0000 	   54.1309
    0.9537 	   15.3115 	   23.0000 	   55.0000 	   54.2289
    0.8316 	   15.3610 	   23.0000 	   55.0000 	   54.3279
    0.9842 	   15.4115 	   23.0000 	   55.0000 	   54.4289
    1.0605 	   15.4650 	   23.0000 	   55.0000 	   54.5359
    0.9232 	   15.5265 	   23.0000 	   55.0000 	   54.6589
    0.9995 	   15.5825 	   23.0000 	   55.0000 	   54.7709
    0.9537 	   15.6380 	   23.0000 	   55.0000 	   54.8819
    1.0452 	   15.6895 	   23.0000 	   55.0000 	   54.9849
    0.9995 	   15.7405 	   23.0000 	   55.0000 	   55.0869
    0.9079 	   15.7890 	   23.0000 	   55.0000 	   55.1839
    0.9995 	   15.8375 	   23.0000 	   55.0000 	   55.2810
    0.8774 	   15.8925 	   23.0000 	   55.0000 	   55.3910
    0.8774 	   15.9475 	   23.0000 	   55.0000 	   55.5010
    0.8621 	   16.0015 	   23.0000 	   55.0000 	   55.6090
    0.9842 	   16.0585 	   23.0000 	   55.0000 	   55.7230
    1.0147 	   16.1150 	   23.0000 	   55.0000 	   55.8360
    1.0300 	   16.1695 	   23.0000 	   55.0000 	   55.9450
    0.9995 	   16.2200 	   23.0000 	   55.0000 	   56.0460
    0.8469 	   16.2690 	   23.0000 	   55.0000 	   56.1440
    1.0147 	   16.3220 	   23.0000 	   55.0000 	   56.2500
    0.9384 	   16.3775 	   23.0000 	   55.0000 	   56.3610
    0.8011 	   16.4315 	   23.0000 	   55.0000 	   56.4690
    1.0605 	   16.4880 	   23.0000 	   55.0000 	   56.5820
    1.0758 	   16.5445 	   23.0000 	   55.0000 	   56.6950
    1.0300 	   16.6010 	   23.0000 	   55.0000 	   56.8080
    1.0605 	   16.6560 	   23.0000 	   55.0000 	   56.9180
    0.8927 	   16.7080 	   23.0000 	   55.0000 	   57.0221
    1.0300 	   16.7575 	   23.0000 	   55.0000 	   57.1211
    1.1215 	   16.8115 	   23.0000 	   55.0000 	   57.2291
    1.1368 	   16.8660 	   23.0000 	   55.0000 	   57.3381
    1.0147 	   16.9155 	   23.0000 	   55.0000 	   57.4371
    1.1063 	   16.9705 	   23.0000 	   55.0000 	   57.5471
    0.9842 	   17.0265 	   23.0000 	   55.0000 	   57.6591
    1.0452 	   17.0845 	   23.0000 	   55.0000 	   57.7751
    1.1063 	   17.1395 	   23.0000 	   55.0000 	   57.8851
    1.0605 	   17.1925 	   23.0000 	   55.0000 	   57.9911
    1.0300 	   17.2435 	   23.0000 	   55.0000 	   58.0931
    0.9384 	   17.2930 	   23.0000 	   55.0000 	   58.1921
    0.9232 	   17.3435 	   23.0000 	   55.0000 	   58.2931
    0.8011 	   17.3995 	   23.0000 	   55.0000 	   58.4051
    1.1978 	   17.4550 	   23.0000 	   55.0000 	   58.5161
    1.0147 	   17.5110 	   23.0000 	   55.0000 	   58.6281
    1.0300 	   17.5665 	   23.0000 	   55.0000 	   58.7392
    1.0452 	   17.6225 	   23.0000 	   55.0000 	   58.8512
    1.1368 	   17.6775 	   23.0000 	   55.0000 	   58.9612
    1.0452 	   17.7300 	   23.0000 	   55.0000 	   59.0662
    1.0300 	   17.7820 	   23.0000 	   55.0000 	   59.1702
    0.9384 	   17.8395 	   23.0000 	   55.0000 	   59.2852
    1.1521 	   17.8960 	   23.0000 	   55.0000 	   59.3982
    1.1368 	   17.9510 	   23.0000 	   55.0000 	   59.5082
    1.1368 	   18.0000 	   23.0000 	   55.0000 	   59.6062
    1.0300 	   18.0525 	   23.0000 	   55.0000 	   59.7112
    1.0300 	   18.1050 	   23.0000 	   55.0000 	   59.8162
    1.0605 	   18.1545 	   23.0000 	   55.0000 	   59.9152
    1.2436 	   18.2070 	   23.0000 	   56.0000 	    0.0202
    1.0758 	   18.2590 	   23.0000 	   56.0000 	    0.1242
    1.1673 	   18.3100 	   23.0000 	   56.0000 	    0.2262
    1.2741 	   18.3585 	   23.0000 	   56.0000 	    0.3232
    1.1063 	   18.4085 	   23.0000 	   56.0000 	    0.4232
    1.0300 	   18.4580 	   23.0000 	   56.0000 	    0.5223
    0.9689 	   18.5090 	   23.0000 	   56.0000 	    0.6243
    1.0605 	   18.5660 	   23.0000 	   56.0000 	    0.7383
    1.0452 	   18.6160 	   23.0000 	   56.0000 	    0.8383
    0.8774 	   18.6685 	   23.0000 	   56.0000 	    0.9433
    1.1673 	   18.7230 	   23.0000 	   56.0000 	    1.0523
    0.9537 	   18.7730 	   23.0000 	   56.0000 	    1.1523
    1.0758 	   18.8295 	   23.0000 	   56.0000 	    1.2653
    1.0147 	   18.8855 	   23.0000 	   56.0000 	    1.3773
    0.8927 	   18.9410 	   23.0000 	   56.0000 	    1.4883
    1.1673 	   19.0005 	   23.0000 	   56.0000 	    1.6073
    1.0300 	   19.0580 	   23.0000 	   56.0000 	    1.7223
    0.9842 	   19.1130 	   23.0000 	   56.0000 	    1.8323
    1.1063 	   19.1695 	   23.0000 	   56.0000 	    1.9453
    0.9995 	   19.2260 	   23.0000 	   56.0000 	    2.0583
    1.0910 	   19.2830 	   23.0000 	   56.0000 	    2.1723
    1.3504 	   19.3395 	   23.0000 	   56.0000 	    2.2854
    1.0758 	   19.3940 	   23.0000 	   56.0000 	    2.3944
    1.2284 	   19.4500 	   23.0000 	   56.0000 	    2.5064
    1.1063 	   19.5070 	   23.0000 	   56.0000 	    2.6204
    0.9842 	   19.5640 	   23.0000 	   56.0000 	    2.7344
    0.8774 	   19.6170 	   23.0000 	   56.0000 	    2.8404
    1.0758 	   19.6665 	   23.0000 	   56.0000 	    2.9394
    1.1368 	   19.7225 	   23.0000 	   56.0000 	    3.0514
    1.2894 	   19.7750 	   23.0000 	   56.0000 	    3.1564
    1.1673 	   19.8255 	   23.0000 	   56.0000 	    3.2574
    1.1826 	   19.8745 	   23.0000 	   56.0000 	    3.3554
    1.2284 	   19.9245 	   23.0000 	   56.0000 	    3.4554
    0.9995 	   19.9745 	   23.0000 	   56.0000 	    3.5554
    1.0758 	   20.0250 	   23.0000 	   56.0000 	    3.6564
    1.0758 	   20.0775 	   23.0000 	   56.0000 	    3.7614
    0.9842 	   20.1305 	   23.0000 	   56.0000 	    3.8674
    1.1673 	   20.1825 	   23.0000 	   56.0000 	    3.9715
    1.1673 	   20.2325 	   23.0000 	   56.0000 	    4.0715
    0.9232 	   20.2865 	   23.0000 	   56.0000 	    4.1795
    1.1673 	   20.3435 	   23.0000 	   56.0000 	    4.2935
    1.2131 	   20.3995 	   23.0000 	   56.0000 	    4.4055
    1.0758 	   20.4555 	   23.0000 	   56.0000 	    4.5175
    1.1063 	   20.5130 	   23.0000 	   56.0000 	    4.6325
    0.9995 	   20.5705 	   23.0000 	   56.0000 	    4.7475
    1.1826 	   20.6285 	   23.0000 	   56.0000 	    4.8635
    1.1673 	   20.6860 	   23.0000 	   56.0000 	    4.9785
    1.0605 	   20.7430 	   23.0000 	   56.0000 	    5.0925
    1.1215 	   20.8010 	   23.0000 	   56.0000 	    5.2085
    1.0300 	   20.8575 	   23.0000 	   56.0000 	    5.3215
    1.0758 	   20.9130 	   23.0000 	   56.0000 	    5.4325
    1.1978 	   20.9710 	   23.0000 	   56.0000 	    5.5485
    1.2284 	   21.0285 	   23.0000 	   56.0000 	    5.6635
    0.9232 	   21.0870 	   23.0000 	   56.0000 	    5.7806
    1.0910 	   21.1430 	   23.0000 	   56.0000 	    5.8926
    1.0910 	   21.2000 	   23.0000 	   56.0000 	    6.0066
    1.2894 	   21.2510 	   23.0000 	   56.0000 	    6.1086
    1.2589 	   21.3020 	   23.0000 	   56.0000 	    6.2106
    1.0910 	   21.3530 	   23.0000 	   56.0000 	    6.3126
    1.0758 	   21.4070 	   23.0000 	   56.0000 	    6.4206
    1.1063 	   21.4645 	   23.0000 	   56.0000 	    6.5356
    1.2589 	   21.5245 	   23.0000 	   56.0000 	    6.6556
    1.3199 	   21.5800 	   23.0000 	   56.0000 	    6.7666
    1.1368 	   21.6305 	   23.0000 	   56.0000 	    6.8676
    1.1521 	   21.6830 	   23.0000 	   56.0000 	    6.9726
    1.3199 	   21.7400 	   23.0000 	   56.0000 	    7.0866
    1.0758 	   21.7925 	   23.0000 	   56.0000 	    7.1916
    1.2589 	   21.8500 	   23.0000 	   56.0000 	    7.3066
    1.1368 	   21.9070 	   23.0000 	   56.0000 	    7.4206
    1.1215 	   21.9655 	   23.0000 	   56.0000 	    7.5377
    1.1826 	   22.0235 	   23.0000 	   56.0000 	    7.6537
    1.0147 	   22.0785 	   23.0000 	   56.0000 	    7.7637
    1.1063 	   22.1335 	   23.0000 	   56.0000 	    7.8737
    1.2436 	   22.1900 	   23.0000 	   56.0000 	    7.9867
    1.1978 	   22.2480 	   23.0000 	   56.0000 	    8.1027
    1.1673 	   22.3045 	   23.0000 	   56.0000 	    8.2157
    1.3046 	   22.3600 	   23.0000 	   56.0000 	    8.3267
    1.3352 	   22.4115 	   23.0000 	   56.0000 	    8.4297
    1.2894 	   22.4630 	   23.0000 	   56.0000 	    8.5327
    1.2436 	   22.5150 	   23.0000 	   56.0000 	    8.6367
    1.1673 	   22.5710 	   23.0000 	   56.0000 	    8.7487
    1.1063 	   22.6235 	   23.0000 	   56.0000 	    8.8537
    1.1978 	   22.6750 	   23.0000 	   56.0000 	    8.9567
    1.2131 	   22.7265 	   23.0000 	   56.0000 	    9.0597
    1.2284 	   22.7835 	   23.0000 	   56.0000 	    9.1737
    1.2284 	   22.8350 	   23.0000 	   56.0000 	    9.2768
    1.1826 	   22.8875 	   23.0000 	   56.0000 	    9.3818
    1.1826 	   22.9385 	   23.0000 	   56.0000 	    9.4838
    1.1978 	   22.9905 	   23.0000 	   56.0000 	    9.5878
    1.1521 	   23.0445 	   23.0000 	   56.0000 	    9.6958
    1.3352 	   23.0960 	   23.0000 	   56.0000 	    9.7988
    1.1673 	   23.1480 	   23.0000 	   56.0000 	    9.9028
    1.4420 	   23.2010 	   23.0000 	   56.0000 	   10.0088
    1.2741 	   23.2520 	   23.0000 	   56.0000 	   10.1108
    1.2589 	   23.3100 	   23.0000 	   56.0000 	   10.2268
    1.1978 	   23.3690 	   23.0000 	   56.0000 	   10.3448
    1.1673 	   23.4280 	   23.0000 	   56.0000 	   10.4628
    1.2131 	   23.4860 	   23.0000 	   56.0000 	   10.5788
    1.1673 	   23.5435 	   23.0000 	   56.0000 	   10.6938
    1.2284 	   23.6030 	   23.0000 	   56.0000 	   10.8128
    1.2741 	   23.6620 	   23.0000 	   56.0000 	   10.9308
    1.1673 	   23.7195 	   23.0000 	   56.0000 	   11.0459
    1.2436 	   23.7785 	   23.0000 	   56.0000 	   11.1639
    1.2894 	   23.8370 	   23.0000 	   56.0000 	   11.2809
    1.2284 	   23.8955 	   23.0000 	   56.0000 	   11.3969
    1.2741 	   23.9495 	   23.0000 	   56.0000 	   11.5049
    1.2436 	   24.0020 	   23.0000 	   56.0000 	   11.6099
    1.2894 	   24.0560 	   23.0000 	   56.0000 	   11.7179
    1.2741 	   24.1090 	   23.0000 	   56.0000 	   11.8239
    1.2436 	   24.1610 	   23.0000 	   56.0000 	   11.9279
    1.2589 	   24.2180 	   23.0000 	   56.0000 	   12.0419
    1.2284 	   24.2765 	   23.0000 	   56.0000 	   12.1589
    1.1826 	   24.3370 	   23.0000 	   56.0000 	   12.2799
    1.2284 	   24.3945 	   23.0000 	   56.0000 	   12.3949
    1.3504 	   24.4525 	   23.0000 	   56.0000 	   12.5109
    1.2741 	   24.5115 	   23.0000 	   56.0000 	   12.6289
    1.2589 	   24.5675 	   23.0000 	   56.0000 	   12.7410
    1.2894 	   24.6205 	   23.0000 	   56.0000 	   12.8470
    1.2131 	   24.6750 	   23.0000 	   56.0000 	   12.9560
    1.2436 	   24.7275 	   23.0000 	   56.0000 	   13.0610
    1.3352 	   24.7795 	   23.0000 	   56.0000 	   13.1650
    1.2589 	   24.8315 	   23.0000 	   56.0000 	   13.2690
    1.3809 	   24.8865 	   23.0000 	   56.0000 	   13.3790
    1.3504 	   24.9385 	   23.0000 	   56.0000 	   13.4830
    1.2284 	   24.9940 	   23.0000 	   56.0000 	   13.5940
    1.3809 	   25.0480 	   23.0000 	   56.0000 	   13.7020
    1.4267 	   25.1015 	   23.0000 	   56.0000 	   13.8090
    1.2436 	   25.1565 	   23.0000 	   56.0000 	   13.9190
    1.1978 	   25.2100 	   23.0000 	   56.0000 	   14.0260
    1.2589 	   25.2630 	   23.0000 	   56.0000 	   14.1320
    1.2589 	   25.3180 	   23.0000 	   56.0000 	   14.2420
    1.1063 	   25.3730 	   23.0000 	   56.0000 	   14.3520
    1.3046 	   25.4265 	   23.0000 	   56.0000 	   14.4591
    1.3352 	   25.4790 	   23.0000 	   56.0000 	   14.5641
    1.1978 	   25.5330 	   23.0000 	   56.0000 	   14.6721
    1.2894 	   25.5885 	   23.0000 	   56.0000 	   14.7831
    1.3504 	   25.6415 	   23.0000 	   56.0000 	   14.8891
    1.3504 	   25.6950 	   23.0000 	   56.0000 	   14.9961
    1.2741 	   25.7485 	   23.0000 	   56.0000 	   15.1031
    1.3504 	   25.8030 	   23.0000 	   56.0000 	   15.2121
    1.4115 	   25.8585 	   23.0000 	   56.0000 	   15.3231
    1.3046 	   25.9160 	   23.0000 	   56.0000 	   15.4381
    1.3199 	   25.9755 	   23.0000 	   56.0000 	   15.5571
    1.2894 	   26.0365 	   23.0000 	   56.0000 	   15.6791
    1.1978 	   26.0915 	   23.0000 	   56.0000 	   15.7891
    1.2284 	   26.1480 	   23.0000 	   56.0000 	   15.9021
    1.3199 	   26.2005 	   23.0000 	   56.0000 	   16.0071
    1.3809 	   26.2540 	   23.0000 	   56.0000 	   16.1141
    1.0452 	   26.3105 	   23.0000 	   56.0000 	   16.2272
    1.3504 	   26.3660 	   23.0000 	   56.0000 	   16.3382
    1.3809 	   26.4265 	   23.0000 	   56.0000 	   16.4592
    1.4267 	   26.4870 	   23.0000 	   56.0000 	   16.5802
    1.2284 	   26.5515 	   23.0000 	   56.0000 	   16.7092
    1.3352 	   26.6110 	   23.0000 	   56.0000 	   16.8282
    1.4115 	   26.6705 	   23.0000 	   56.0000 	   16.9472
    1.0300 	   26.7300 	   23.0000 	   56.0000 	   17.0662
    1.3352 	   26.7890 	   23.0000 	   56.0000 	   17.1842
    1.4267 	   26.8485 	   23.0000 	   56.0000 	   17.3032
    1.3504 	   26.9095 	   23.0000 	   56.0000 	   17.4252
    1.2589 	   26.9685 	   23.0000 	   56.0000 	   17.5432
    1.1978 	   27.0295 	   23.0000 	   56.0000 	   17.6652
    1.5030 	   27.0905 	   23.0000 	   56.0000 	   17.7872
    1.4572 	   27.1490 	   23.0000 	   56.0000 	   17.9042
    1.3046 	   27.2095 	   23.0000 	   56.0000 	   18.0253
    1.4115 	   27.2700 	   23.0000 	   56.0000 	   18.1463
    1.4115 	   27.3280 	   23.0000 	   56.0000 	   18.2623
    1.3657 	   27.3880 	   23.0000 	   56.0000 	   18.3823
    1.3504 	   27.4470 	   23.0000 	   56.0000 	   18.5003
    1.2894 	   27.5070 	   23.0000 	   56.0000 	   18.6203
    1.3657 	   27.5680 	   23.0000 	   56.0000 	   18.7423
    1.5183 	   27.6295 	   23.0000 	   56.0000 	   18.8653
    1.3962 	   27.6910 	   23.0000 	   56.0000 	   18.9883
    1.2589 	   27.7510 	   23.0000 	   56.0000 	   19.1083
    1.3657 	   27.8115 	   23.0000 	   56.0000 	   19.2293
    1.3657 	   27.8715 	   23.0000 	   56.0000 	   19.3493
    1.5183 	   27.9310 	   23.0000 	   56.0000 	   19.4683
    1.4420 	   27.9915 	   23.0000 	   56.0000 	   19.5893
    1.3657 	   28.0525 	   23.0000 	   56.0000 	   19.7114
    1.3504 	   28.1110 	   23.0000 	   56.0000 	   19.8284
    1.4115 	   28.1715 	   23.0000 	   56.0000 	   19.9494
    1.4725 	   28.2310 	   23.0000 	   56.0000 	   20.0684
    1.3809 	   28.2905 	   23.0000 	   56.0000 	   20.1874
    1.3809 	   28.3455 	   23.0000 	   56.0000 	   20.2974
    1.1673 	   28.3980 	   23.0000 	   56.0000 	   20.4024
    1.4115 	   28.4510 	   23.0000 	   56.0000 	   20.5084
    1.3657 	   28.5070 	   23.0000 	   56.0000 	   20.6204
    1.3504 	   28.5615 	   23.0000 	   56.0000 	   20.7294
    1.4115 	   28.6155 	   23.0000 	   56.0000 	   20.8374
    1.5793 	   28.6685 	   23.0000 	   56.0000 	   20.9434
    1.4267 	   28.7285 	   23.0000 	   56.0000 	   21.0634
    1.4115 	   28.7880 	   23.0000 	   56.0000 	   21.1824
    1.5335 	   28.8480 	   23.0000 	   56.0000 	   21.3024
    1.4572 	   28.9095 	   23.0000 	   56.0000 	   21.4254
    1.4267 	   28.9690 	   23.0000 	   56.0000 	   21.5445
    1.4725 	   29.0285 	   23.0000 	   56.0000 	   21.6635
    1.4725 	   29.0895 	   23.0000 	   56.0000 	   21.7855
    1.4878 	   29.1495 	   23.0000 	   56.0000 	   21.9055
    1.5335 	   29.2090 	   23.0000 	   56.0000 	   22.0245
    1.4420 	   29.2680 	   23.0000 	   56.0000 	   22.1425
    1.5335 	   29.3230 	   23.0000 	   56.0000 	   22.2525
    1.6403 	   29.3790 	   23.0000 	   56.0000 	   22.3645
    1.3504 	   29.4355 	   23.0000 	   56.0000 	   22.4775
    1.4267 	   29.4925 	   23.0000 	   56.0000 	   22.5915
    1.6098 	   29.5540 	   23.0000 	   56.0000 	   22.7145
    1.5488 	   29.6135 	   23.0000 	   56.0000 	   22.8335
    1.5183 	   29.6750 	   23.0000 	   56.0000 	   22.9565
    1.4420 	   29.7350 	   23.0000 	   56.0000 	   23.0765
    1.3352 	   29.7965 	   23.0000 	   56.0000 	   23.1996
    1.5946 	   29.8560 	   23.0000 	   56.0000 	   23.3186
    1.4572 	   29.9175 	   23.0000 	   56.0000 	   23.4416
    1.4420 	   29.9765 	   23.0000 	   56.0000 	   23.5596
    1.5640 	   30.0395 	   23.0000 	   56.0000 	   23.6856
    1.4878 	   30.1015 	   23.0000 	   56.0000 	   23.8096
    1.5030 	   30.1625 	   23.0000 	   56.0000 	   23.9316
    1.5946 	   30.2225 	   23.0000 	   56.0000 	   24.0516
    1.5183 	   30.2830 	   23.0000 	   56.0000 	   24.1726
    1.5640 	   30.3435 	   23.0000 	   56.0000 	   24.2936
    1.5030 	   30.4040 	   23.0000 	   56.0000 	   24.4146
    1.5946 	   30.4660 	   23.0000 	   56.0000 	   24.5386
    1.2741 	   30.5255 	   23.0000 	   56.0000 	   24.6576
    1.4878 	   30.5860 	   23.0000 	   56.0000 	   24.7786
    1.4725 	   30.6455 	   23.0000 	   56.0000 	   24.8976
    1.5335 	   30.7060 	   23.0000 	   56.0000 	   25.0187
    1.5793 	   30.7660 	   23.0000 	   56.0000 	   25.1387
    1.6098 	   30.8275 	   23.0000 	   56.0000 	   25.2617
    1.6098 	   30.8870 	   23.0000 	   56.0000 	   25.3807
    1.4878 	   30.9480 	   23.0000 	   56.0000 	   25.5027
    1.6251 	   31.0060 	   23.0000 	   56.0000 	   25.6187
    1.5488 	   31.0625 	   23.0000 	   56.0000 	   25.7317
    1.4878 	   31.1185 	   23.0000 	   56.0000 	   25.8437
    1.4725 	   31.1735 	   23.0000 	   56.0000 	   25.9537
    1.6403 	   31.2275 	   23.0000 	   56.0000 	   26.0617
    1.5640 	   31.2880 	   23.0000 	   56.0000 	   26.1827
    1.5335 	   31.3475 	   23.0000 	   56.0000 	   26.3017
    1.5030 	   31.4070 	   23.0000 	   56.0000 	   26.4207
    1.6403 	   31.4660 	   23.0000 	   56.0000 	   26.5387
    1.5946 	   31.5255 	   23.0000 	   56.0000 	   26.6577
    1.5488 	   31.5860 	   23.0000 	   56.0000 	   26.7788
    1.5640 	   31.6470 	   23.0000 	   56.0000 	   26.9008
    1.5640 	   31.7055 	   23.0000 	   56.0000 	   27.0178
    1.7166 	   31.7650 	   23.0000 	   56.0000 	   27.1368
    1.5946 	   31.8260 	   23.0000 	   56.0000 	   27.2588
    1.6098 	   31.8840 	   23.0000 	   56.0000 	   27.3748
    1.3504 	   31.9430 	   23.0000 	   56.0000 	   27.4928
    1.5488 	   32.0025 	   23.0000 	   56.0000 	   27.6118
    1.7319 	   32.0640 	   23.0000 	   56.0000 	   27.7348
    1.5946 	   32.1225 	   23.0000 	   56.0000 	   27.8518
    1.6861 	   32.1825 	   23.0000 	   56.0000 	   27.9718
    1.6861 	   32.2445 	   23.0000 	   56.0000 	   28.0958
    1.7319 	   32.3065 	   23.0000 	   56.0000 	   28.2198
    1.6251 	   32.3680 	   23.0000 	   56.0000 	   28.3428
    1.6709 	   32.4280 	   23.0000 	   56.0000 	   28.4629
    1.6098 	   32.4895 	   23.0000 	   56.0000 	   28.5859
    1.7777 	   32.5515 	   23.0000 	   56.0000 	   28.7099
    1.7472 	   32.6140 	   23.0000 	   56.0000 	   28.8339
    1.6251 	   32.6755 	   23.0000 	   56.0000 	   28.9569
    1.7166 	   32.7365 	   23.0000 	   56.0000 	   29.0789
    1.7014 	   32.7970 	   23.0000 	   56.0000 	   29.1999
    1.6556 	   32.8580 	   23.0000 	   56.0000 	   29.3219
    1.6251 	   32.9200 	   23.0000 	   56.0000 	   29.4459
    1.7014 	   32.9815 	   23.0000 	   56.0000 	   29.5689
    1.3199 	   33.0430 	   23.0000 	   56.0000 	   29.6919
    1.7929 	   33.1045 	   23.0000 	   56.0000 	   29.8149
    1.7319 	   33.1655 	   23.0000 	   56.0000 	   29.9369
    1.5488 	   33.2250 	   23.0000 	   56.0000 	   30.0559
    1.5335 	   33.2860 	   23.0000 	   56.0000 	   30.1779
    1.7777 	   33.3480 	   23.0000 	   56.0000 	   30.3020
    1.7624 	   33.4030 	   23.0000 	   56.0000 	   30.4120
    1.4267 	   33.4585 	   23.0000 	   56.0000 	   30.5230
    1.7319 	   33.5155 	   23.0000 	   56.0000 	   30.6370
    1.5946 	   33.5760 	   23.0000 	   56.0000 	   30.7580
    1.6861 	   33.6370 	   23.0000 	   56.0000 	   30.8800
    1.7166 	   33.6985 	   23.0000 	   56.0000 	   31.0030
    1.6403 	   33.7610 	   23.0000 	   56.0000 	   31.1280
    1.8540 	   33.8230 	   23.0000 	   56.0000 	   31.2520
    1.6709 	   33.8785 	   23.0000 	   56.0000 	   31.3630
    1.7929 	   33.9330 	   23.0000 	   56.0000 	   31.4720
    1.8082 	   33.9875 	   23.0000 	   56.0000 	   31.5810
    1.6251 	   34.0495 	   23.0000 	   56.0000 	   31.7050
    1.8692 	   34.1075 	   23.0000 	   56.0000 	   31.8210
    1.7319 	   34.1625 	   23.0000 	   56.0000 	   31.9310
    1.4267 	   34.2195 	   23.0000 	   56.0000 	   32.0451
    1.7777 	   34.2815 	   23.0000 	   56.0000 	   32.1691
    1.7929 	   34.3365 	   23.0000 	   56.0000 	   32.2791
    1.7166 	   34.3930 	   23.0000 	   56.0000 	   32.3921
    1.6709 	   34.4485 	   23.0000 	   56.0000 	   32.5031
    1.6098 	   34.5045 	   23.0000 	   56.0000 	   32.6151
    1.8082 	   34.5650 	   23.0000 	   56.0000 	   32.7361
    1.7929 	   34.6195 	   23.0000 	   56.0000 	   32.8451
    1.7166 	   34.6750 	   23.0000 	   56.0000 	   32.9561
    1.7929 	   34.7320 	   23.0000 	   56.0000 	   33.0701
    1.8997 	   34.7880 	   23.0000 	   56.0000 	   33.1821
    1.7472 	   34.8435 	   23.0000 	   56.0000 	   33.2931
    1.7624 	   34.8985 	   23.0000 	   56.0000 	   33.4031
    1.7472 	   34.9540 	   23.0000 	   56.0000 	   33.5141
    1.7472 	   35.0120 	   23.0000 	   56.0000 	   33.6301
    1.7319 	   35.0720 	   23.0000 	   56.0000 	   33.7502
    1.6709 	   35.1275 	   23.0000 	   56.0000 	   33.8612
    1.7624 	   35.1890 	   23.0000 	   56.0000 	   33.9842
    1.8387 	   35.2500 	   23.0000 	   56.0000 	   34.1062
    1.8082 	   35.3125 	   23.0000 	   56.0000 	   34.2312
    1.7929 	   35.3735 	   23.0000 	   56.0000 	   34.3532
    1.6861 	   35.4350 	   23.0000 	   56.0000 	   34.4762
    1.7929 	   35.4945 	   23.0000 	   56.0000 	   34.5952
    1.7472 	   35.5565 	   23.0000 	   56.0000 	   34.7192
    1.7166 	   35.6190 	   23.0000 	   56.0000 	   34.8442
    1.8540 	   35.6795 	   23.0000 	   56.0000 	   34.9652
    1.7319 	   35.7405 	   23.0000 	   56.0000 	   35.0872
    1.8540 	   35.8025 	   23.0000 	   56.0000 	   35.2112
    1.9455 	   35.8640 	   23.0000 	   56.0000 	   35.3342
    1.7777 	   35.9265 	   23.0000 	   56.0000 	   35.4593
    1.8235 	   35.9875 	   23.0000 	   56.0000 	   35.5813
    1.8997 	   36.0515 	   23.0000 	   56.0000 	   35.7093
    1.9150 	   36.1140 	   23.0000 	   56.0000 	   35.8343
    1.7472 	   36.1770 	   23.0000 	   56.0000 	   35.9603
    1.8540 	   36.2395 	   23.0000 	   56.0000 	   36.0853
    1.8540 	   36.2985 	   23.0000 	   56.0000 	   36.2033
    1.9608 	   36.3535 	   23.0000 	   56.0000 	   36.3133
    1.8235 	   36.4090 	   23.0000 	   56.0000 	   36.4243
    1.7624 	   36.4685 	   23.0000 	   56.0000 	   36.5433
    1.8387 	   36.5260 	   23.0000 	   56.0000 	   36.6583
    1.9303 	   36.5820 	   23.0000 	   56.0000 	   36.7703
    1.8540 	   36.6380 	   23.0000 	   56.0000 	   36.8823
    1.8540 	   36.6955 	   23.0000 	   56.0000 	   36.9973
    1.9150 	   36.7520 	   23.0000 	   56.0000 	   37.1103
    1.8845 	   36.8105 	   23.0000 	   56.0000 	   37.2274
    1.9455 	   36.8730 	   23.0000 	   56.0000 	   37.3524
    1.9150 	   36.9370 	   23.0000 	   56.0000 	   37.4794
    2.1286 	   36.9985 	   23.0000 	   56.0000 	   37.6034
    1.8387 	   37.0630 	   23.0000 	   56.0000 	   37.7324
    2.0676 	   37.1230 	   23.0000 	   56.0000 	   37.8524
    1.9608 	   37.1860 	   23.0000 	   56.0000 	   37.9784
    2.0371 	   37.2485 	   23.0000 	   56.0000 	   38.1034
    1.9608 	   37.3095 	   23.0000 	   56.0000 	   38.2254
    1.7166 	   37.3695 	   23.0000 	   56.0000 	   38.3454
    1.8387 	   37.4300 	   23.0000 	   56.0000 	   38.4664
    1.9608 	   37.4915 	   23.0000 	   56.0000 	   38.5894
    1.9760 	   37.5545 	   23.0000 	   56.0000 	   38.7154
    2.0676 	   37.6160 	   23.0000 	   56.0000 	   38.8384
    2.0371 	   37.6785 	   23.0000 	   56.0000 	   38.9635
    1.8540 	   37.7410 	   23.0000 	   56.0000 	   39.0885
    1.9455 	   37.8035 	   23.0000 	   56.0000 	   39.2135
    2.0981 	   37.8655 	   23.0000 	   56.0000 	   39.3375
    2.0829 	   37.9285 	   23.0000 	   56.0000 	   39.4635
    1.9303 	   37.9900 	   23.0000 	   56.0000 	   39.5865
    2.0218 	   38.0545 	   23.0000 	   56.0000 	   39.7155
    2.0371 	   38.1160 	   23.0000 	   56.0000 	   39.8385
    2.0676 	   38.1785 	   23.0000 	   56.0000 	   39.9635
    2.0523 	   38.2405 	   23.0000 	   56.0000 	   40.0875
    2.0218 	   38.3040 	   23.0000 	   56.0000 	   40.2145
    1.9760 	   38.3655 	   23.0000 	   56.0000 	   40.3375
    1.9760 	   38.4275 	   23.0000 	   56.0000 	   40.4615
    2.0829 	   38.4910 	   23.0000 	   56.0000 	   40.5885
    1.9913 	   38.5525 	   23.0000 	   56.0000 	   40.7116
    2.1134 	   38.6155 	   23.0000 	   56.0000 	   40.8376
    2.0981 	   38.6785 	   23.0000 	   56.0000 	   40.9636
    2.2202 	   38.7415 	   23.0000 	   56.0000 	   41.0896
    2.0218 	   38.8045 	   23.0000 	   56.0000 	   41.2156
    2.0676 	   38.8665 	   23.0000 	   56.0000 	   41.3396
    2.1592 	   38.9275 	   23.0000 	   56.0000 	   41.4616
    2.0676 	   38.9890 	   23.0000 	   56.0000 	   41.5846
    2.1744 	   39.0525 	   23.0000 	   56.0000 	   41.7116
    2.1897 	   39.1140 	   23.0000 	   56.0000 	   41.8346
    2.2660 	   39.1740 	   23.0000 	   56.0000 	   41.9546
    2.1134 	   39.2335 	   23.0000 	   56.0000 	   42.0736
    2.1134 	   39.2920 	   23.0000 	   56.0000 	   42.1906
    2.1592 	   39.3480 	   23.0000 	   56.0000 	   42.3026
    2.1134 	   39.4030 	   23.0000 	   56.0000 	   42.4127
    2.1439 	   39.4580 	   23.0000 	   56.0000 	   42.5227
    2.0829 	   39.5135 	   23.0000 	   56.0000 	   42.6337
    2.1439 	   39.5695 	   23.0000 	   56.0000 	   42.7457
    2.1134 	   39.6270 	   23.0000 	   56.0000 	   42.8607
    2.1439 	   39.6860 	   23.0000 	   56.0000 	   42.9787
    1.9150 	   39.7415 	   23.0000 	   56.0000 	   43.0897
    2.2049 	   39.7975 	   23.0000 	   56.0000 	   43.2017
    2.0371 	   39.8565 	   23.0000 	   56.0000 	   43.3197
    2.1744 	   39.9160 	   23.0000 	   56.0000 	   43.4387
    2.2049 	   39.9790 	   23.0000 	   56.0000 	   43.5647
    2.1592 	   40.0415 	   23.0000 	   56.0000 	   43.6897
    1.9455 	   40.1045 	   23.0000 	   56.0000 	   43.8157
    2.0371 	   40.1635 	   23.0000 	   56.0000 	   43.9337
    2.2507 	   40.2235 	   23.0000 	   56.0000 	   44.0537
    2.0981 	   40.2850 	   23.0000 	   56.0000 	   44.1768