File: instron/independence/size/length/b_l10w3_40_30.txt
Thayer School of Engineering        Instron 4442 Mechanical Testing System
7/5/2018 11:31:43 PM

  Force (N)	Extension (mm)	Not Used	Not Used	Not Used	     Hour	    Minute	    Second
    0.4654 	    0.5140 	   23.0000 	   31.0000 	   56.6347
    0.5417 	    0.6060 	   23.0000 	   31.0000 	   56.8187
    0.5417 	    0.6930 	   23.0000 	   31.0000 	   56.9927
    0.5570 	    0.7705 	   23.0000 	   31.0000 	   57.1477
    0.5570 	    0.8665 	   23.0000 	   31.0000 	   57.3397
    0.4807 	    0.9665 	   23.0000 	   31.0000 	   57.5397
    0.5722 	    1.0600 	   23.0000 	   31.0000 	   57.7267
    0.5112 	    1.1655 	   23.0000 	   31.0000 	   57.9377
    0.5722 	    1.2390 	   23.0000 	   31.0000 	   58.0848
    0.3128 	    1.3275 	   23.0000 	   31.0000 	   58.2618
    0.6485 	    1.4270 	   23.0000 	   31.0000 	   58.4608
    0.4501 	    1.5165 	   23.0000 	   31.0000 	   58.6398
    0.6027 	    1.6025 	   23.0000 	   31.0000 	   58.8118
    0.4959 	    1.6825 	   23.0000 	   31.0000 	   58.9718
    0.5722 	    1.7600 	   23.0000 	   31.0000 	   59.1268
    0.6180 	    1.8240 	   23.0000 	   31.0000 	   59.2548
    0.5417 	    1.8840 	   23.0000 	   31.0000 	   59.3748
    0.5570 	    1.9505 	   23.0000 	   31.0000 	   59.5078
    0.4501 	    2.0170 	   23.0000 	   31.0000 	   59.6408
    0.5722 	    2.0820 	   23.0000 	   31.0000 	   59.7708
    0.5722 	    2.1485 	   23.0000 	   31.0000 	   59.9039
    0.3891 	    2.2135 	   23.0000 	   32.0000 	    0.0339
    0.5570 	    2.2775 	   23.0000 	   32.0000 	    0.1619
    0.6485 	    2.3405 	   23.0000 	   32.0000 	    0.2879
    0.6027 	    2.4090 	   23.0000 	   32.0000 	    0.4249
    0.3891 	    2.4755 	   23.0000 	   32.0000 	    0.5579
    0.5112 	    2.5410 	   23.0000 	   32.0000 	    0.6889
    0.6180 	    2.6060 	   23.0000 	   32.0000 	    0.8189
    0.5722 	    2.6685 	   23.0000 	   32.0000 	    0.9439
    0.5570 	    2.7335 	   23.0000 	   32.0000 	    1.0739
    0.5875 	    2.7940 	   23.0000 	   32.0000 	    1.1949
    0.6180 	    2.8560 	   23.0000 	   32.0000 	    1.3189
    0.6027 	    2.9185 	   23.0000 	   32.0000 	    1.4439
    0.6638 	    2.9815 	   23.0000 	   32.0000 	    1.5700
    0.5875 	    3.0430 	   23.0000 	   32.0000 	    1.6930
    0.6180 	    3.1055 	   23.0000 	   32.0000 	    1.8180
    0.5875 	    3.1670 	   23.0000 	   32.0000 	    1.9410
    0.4349 	    3.2305 	   23.0000 	   32.0000 	    2.0680
    0.7553 	    3.2940 	   23.0000 	   32.0000 	    2.1950
    0.6332 	    3.3580 	   23.0000 	   32.0000 	    2.3230
    0.6027 	    3.4185 	   23.0000 	   32.0000 	    2.4440
    0.4807 	    3.4830 	   23.0000 	   32.0000 	    2.5730
    0.5875 	    3.5450 	   23.0000 	   32.0000 	    2.6970
    0.5875 	    3.6075 	   23.0000 	   32.0000 	    2.8220
    0.6943 	    3.6715 	   23.0000 	   32.0000 	    2.9500
    0.6332 	    3.7350 	   23.0000 	   32.0000 	    3.0770
    0.2365 	    3.7990 	   23.0000 	   32.0000 	    3.2050
    0.7095 	    3.8640 	   23.0000 	   32.0000 	    3.3351
    0.6638 	    3.9265 	   23.0000 	   32.0000 	    3.4601
    0.5112 	    3.9890 	   23.0000 	   32.0000 	    3.5851
    0.6485 	    4.0565 	   23.0000 	   32.0000 	    3.7201
    0.5570 	    4.1170 	   23.0000 	   32.0000 	    3.8411
    0.6180 	    4.1785 	   23.0000 	   32.0000 	    3.9641
    0.6638 	    4.2415 	   23.0000 	   32.0000 	    4.0901
    0.6180 	    4.3045 	   23.0000 	   32.0000 	    4.2161
    0.6790 	    4.3660 	   23.0000 	   32.0000 	    4.3391
    0.6943 	    4.4260 	   23.0000 	   32.0000 	    4.4591
    0.5722 	    4.4910 	   23.0000 	   32.0000 	    4.5891
    0.5722 	    4.5560 	   23.0000 	   32.0000 	    4.7191
    0.8469 	    4.6180 	   23.0000 	   32.0000 	    4.8431
    0.6027 	    4.6815 	   23.0000 	   32.0000 	    4.9701
    0.7401 	    4.7465 	   23.0000 	   32.0000 	    5.1002
    0.6485 	    4.8095 	   23.0000 	   32.0000 	    5.2262
    0.5722 	    4.8720 	   23.0000 	   32.0000 	    5.3512
    0.6027 	    4.9365 	   23.0000 	   32.0000 	    5.4802
    0.6790 	    4.9995 	   23.0000 	   32.0000 	    5.6062
    0.6790 	    5.0640 	   23.0000 	   32.0000 	    5.7352
    0.7401 	    5.1275 	   23.0000 	   32.0000 	    5.8622
    0.7706 	    5.1910 	   23.0000 	   32.0000 	    5.9892
    0.8164 	    5.2550 	   23.0000 	   32.0000 	    6.1172
    0.7248 	    5.3160 	   23.0000 	   32.0000 	    6.2392
    0.5417 	    5.3820 	   23.0000 	   32.0000 	    6.3712
    0.6027 	    5.4480 	   23.0000 	   32.0000 	    6.5032
    0.8011 	    5.5120 	   23.0000 	   32.0000 	    6.6302
    0.7248 	    5.5755 	   23.0000 	   32.0000 	    6.7572
    0.6332 	    5.6410 	   23.0000 	   32.0000 	    6.8883
    0.7401 	    5.7070 	   23.0000 	   32.0000 	    7.0203
    0.6180 	    5.7720 	   23.0000 	   32.0000 	    7.1503
    0.5570 	    5.8365 	   23.0000 	   32.0000 	    7.2793
    0.4807 	    5.9010 	   23.0000 	   32.0000 	    7.4083
    0.6332 	    5.9665 	   23.0000 	   32.0000 	    7.5393
    0.6943 	    6.0295 	   23.0000 	   32.0000 	    7.6653
    0.6332 	    6.0925 	   23.0000 	   32.0000 	    7.7913
    0.6027 	    6.1570 	   23.0000 	   32.0000 	    7.9203
    0.8621 	    6.2235 	   23.0000 	   32.0000 	    8.0533
    0.6638 	    6.2900 	   23.0000 	   32.0000 	    8.1863
    0.6943 	    6.3545 	   23.0000 	   32.0000 	    8.3153
    0.7248 	    6.4180 	   23.0000 	   32.0000 	    8.4423
    0.6638 	    6.4825 	   23.0000 	   32.0000 	    8.5714
    0.7401 	    6.5485 	   23.0000 	   32.0000 	    8.7034
    0.6790 	    6.6155 	   23.0000 	   32.0000 	    8.8374
    0.6485 	    6.6820 	   23.0000 	   32.0000 	    8.9704
    0.7401 	    6.7490 	   23.0000 	   32.0000 	    9.1044
    0.5264 	    6.8155 	   23.0000 	   32.0000 	    9.2374
    0.6638 	    6.8815 	   23.0000 	   32.0000 	    9.3694
    0.6790 	    6.9485 	   23.0000 	   32.0000 	    9.5034
    0.6180 	    7.0150 	   23.0000 	   32.0000 	    9.6364
    0.6790 	    7.0820 	   23.0000 	   32.0000 	    9.7704
    0.7248 	    7.1475 	   23.0000 	   32.0000 	    9.9014
    0.6485 	    7.2130 	   23.0000 	   32.0000 	   10.0324
    0.8011 	    7.2790 	   23.0000 	   32.0000 	   10.1644
    0.7095 	    7.3440 	   23.0000 	   32.0000 	   10.2944
    0.6790 	    7.4095 	   23.0000 	   32.0000 	   10.4255
    0.7401 	    7.4755 	   23.0000 	   32.0000 	   10.5575
    0.7248 	    7.5400 	   23.0000 	   32.0000 	   10.6865
    0.8774 	    7.6070 	   23.0000 	   32.0000 	   10.8205
    0.7248 	    7.6750 	   23.0000 	   32.0000 	   10.9565
    0.7095 	    7.7415 	   23.0000 	   32.0000 	   11.0895
    0.6485 	    7.8070 	   23.0000 	   32.0000 	   11.2205
    0.5722 	    7.8740 	   23.0000 	   32.0000 	   11.3545
    0.8164 	    7.9410 	   23.0000 	   32.0000 	   11.4885
    0.7553 	    8.0075 	   23.0000 	   32.0000 	   11.6215
    0.7401 	    8.0780 	   23.0000 	   32.0000 	   11.7625
    0.7858 	    8.1420 	   23.0000 	   32.0000 	   11.8905
    0.6790 	    8.2075 	   23.0000 	   32.0000 	   12.0215
    0.7858 	    8.2755 	   23.0000 	   32.0000 	   12.1576
    0.6790 	    8.3415 	   23.0000 	   32.0000 	   12.2896
    0.6943 	    8.4085 	   23.0000 	   32.0000 	   12.4236
    0.6485 	    8.4750 	   23.0000 	   32.0000 	   12.5566
    0.9232 	    8.5405 	   23.0000 	   32.0000 	   12.6876
    0.8011 	    8.6085 	   23.0000 	   32.0000 	   12.8236
    0.6485 	    8.6755 	   23.0000 	   32.0000 	   12.9576
    0.8316 	    8.7410 	   23.0000 	   32.0000 	   13.0886
    0.7858 	    8.8085 	   23.0000 	   32.0000 	   13.2236
    0.7401 	    8.8755 	   23.0000 	   32.0000 	   13.3576
    0.6485 	    8.9415 	   23.0000 	   32.0000 	   13.4896
    0.6943 	    9.0090 	   23.0000 	   32.0000 	   13.6246
    0.8011 	    9.0765 	   23.0000 	   32.0000 	   13.7596
    0.6180 	    9.1420 	   23.0000 	   32.0000 	   13.8907
    0.7706 	    9.2080 	   23.0000 	   32.0000 	   14.0227
    0.8469 	    9.2755 	   23.0000 	   32.0000 	   14.1577
    0.8011 	    9.3425 	   23.0000 	   32.0000 	   14.2917
    0.7858 	    9.4090 	   23.0000 	   32.0000 	   14.4247
    0.7858 	    9.4770 	   23.0000 	   32.0000 	   14.5607
    0.8011 	    9.5435 	   23.0000 	   32.0000 	   14.6937
    0.7706 	    9.6100 	   23.0000 	   32.0000 	   14.8257
    0.8164 	    9.6775 	   23.0000 	   32.0000 	   14.9617
    0.8621 	    9.7465 	   23.0000 	   32.0000 	   15.0997
    0.8316 	    9.8135 	   23.0000 	   32.0000 	   15.2337
    0.8316 	    9.8845 	   23.0000 	   32.0000 	   15.3757
    0.6943 	    9.9505 	   23.0000 	   32.0000 	   15.5077
    0.8774 	   10.0165 	   23.0000 	   32.0000 	   15.6398
    0.7706 	   10.0840 	   23.0000 	   32.0000 	   15.7748
    0.7858 	   10.1510 	   23.0000 	   32.0000 	   15.9088
    0.7401 	   10.2195 	   23.0000 	   32.0000 	   16.0458
    0.8164 	   10.2855 	   23.0000 	   32.0000 	   16.1778
    0.7706 	   10.3505 	   23.0000 	   32.0000 	   16.3078
    0.8316 	   10.4180 	   23.0000 	   32.0000 	   16.4428
    0.9079 	   10.4845 	   23.0000 	   32.0000 	   16.5758
    0.8774 	   10.5505 	   23.0000 	   32.0000 	   16.7078
    0.8621 	   10.6170 	   23.0000 	   32.0000 	   16.8408
    0.9079 	   10.6850 	   23.0000 	   32.0000 	   16.9768
    0.7401 	   10.7510 	   23.0000 	   32.0000 	   17.1088
    0.9689 	   10.8180 	   23.0000 	   32.0000 	   17.2428
    0.8774 	   10.8885 	   23.0000 	   32.0000 	   17.3839
    0.8927 	   10.9555 	   23.0000 	   32.0000 	   17.5179
    0.8011 	   11.0260 	   23.0000 	   32.0000 	   17.6589
    0.7706 	   11.0930 	   23.0000 	   32.0000 	   17.7929
    0.7706 	   11.1590 	   23.0000 	   32.0000 	   17.9249
    0.7858 	   11.2255 	   23.0000 	   32.0000 	   18.0579
    0.7095 	   11.2930 	   23.0000 	   32.0000 	   18.1929
    0.8316 	   11.3600 	   23.0000 	   32.0000 	   18.3269
    0.7401 	   11.4260 	   23.0000 	   32.0000 	   18.4589
    0.8011 	   11.4950 	   23.0000 	   32.0000 	   18.5969
    0.7858 	   11.5635 	   23.0000 	   32.0000 	   18.7339
    0.8774 	   11.6320 	   23.0000 	   32.0000 	   18.8709
    1.0605 	   11.7010 	   23.0000 	   32.0000 	   19.0089
    0.9232 	   11.7695 	   23.0000 	   32.0000 	   19.1460
    0.8774 	   11.8390 	   23.0000 	   32.0000 	   19.2850
    0.8469 	   11.9090 	   23.0000 	   32.0000 	   19.4250
    0.8927 	   11.9765 	   23.0000 	   32.0000 	   19.5600
    0.9232 	   12.0460 	   23.0000 	   32.0000 	   19.6990
    0.5722 	   12.1150 	   23.0000 	   32.0000 	   19.8370
    0.8621 	   12.1800 	   23.0000 	   32.0000 	   19.9670
    0.9384 	   12.2485 	   23.0000 	   32.0000 	   20.1040
    0.8774 	   12.3230 	   23.0000 	   32.0000 	   20.2530
    0.9079 	   12.3910 	   23.0000 	   32.0000 	   20.3890
    0.9079 	   12.4610 	   23.0000 	   32.0000 	   20.5290
    0.8316 	   12.5260 	   23.0000 	   32.0000 	   20.6590
    0.6790 	   12.5940 	   23.0000 	   32.0000 	   20.7950
    0.7706 	   12.6610 	   23.0000 	   32.0000 	   20.9291
    0.8011 	   12.7305 	   23.0000 	   32.0000 	   21.0681
    0.8316 	   12.8005 	   23.0000 	   32.0000 	   21.2081
    0.9842 	   12.8695 	   23.0000 	   32.0000 	   21.3461
    0.8774 	   12.9385 	   23.0000 	   32.0000 	   21.4841
    0.9842 	   13.0105 	   23.0000 	   32.0000 	   21.6281
    0.9842 	   13.0825 	   23.0000 	   32.0000 	   21.7721
    0.9689 	   13.1505 	   23.0000 	   32.0000 	   21.9081
    0.8927 	   13.2220 	   23.0000 	   32.0000 	   22.0511
    0.9384 	   13.2940 	   23.0000 	   32.0000 	   22.1951
    0.8011 	   13.3655 	   23.0000 	   32.0000 	   22.3381
    0.9079 	   13.4360 	   23.0000 	   32.0000 	   22.4791
    0.9995 	   13.5045 	   23.0000 	   32.0000 	   22.6162
    0.9537 	   13.5765 	   23.0000 	   32.0000 	   22.7602
    1.0452 	   13.6450 	   23.0000 	   32.0000 	   22.8972
    0.8469 	   13.7120 	   23.0000 	   32.0000 	   23.0312
    0.8774 	   13.7800 	   23.0000 	   32.0000 	   23.1672
    1.0147 	   13.8515 	   23.0000 	   32.0000 	   23.3102
    1.0300 	   13.9215 	   23.0000 	   32.0000 	   23.4502
    1.0300 	   13.9890 	   23.0000 	   32.0000 	   23.5852
    0.7401 	   14.0610 	   23.0000 	   32.0000 	   23.7292
    1.0147 	   14.1315 	   23.0000 	   32.0000 	   23.8702
    0.9995 	   14.2005 	   23.0000 	   32.0000 	   24.0082
    1.0452 	   14.2715 	   23.0000 	   32.0000 	   24.1492
    0.9689 	   14.3425 	   23.0000 	   32.0000 	   24.2913
    0.6943 	   14.4130 	   23.0000 	   32.0000 	   24.4323
    1.0147 	   14.4815 	   23.0000 	   32.0000 	   24.5693
    1.1063 	   14.5535 	   23.0000 	   32.0000 	   24.7133
    0.9995 	   14.6145 	   23.0000 	   32.0000 	   24.8353
    0.9842 	   14.6765 	   23.0000 	   32.0000 	   24.9593
    0.9232 	   14.7390 	   23.0000 	   32.0000 	   25.0843
    1.0758 	   14.8105 	   23.0000 	   32.0000 	   25.2273
    1.0147 	   14.8795 	   23.0000 	   32.0000 	   25.3653
    1.0452 	   14.9495 	   23.0000 	   32.0000 	   25.5053
    1.1368 	   15.0260 	   23.0000 	   32.0000 	   25.6583
    1.0452 	   15.0995 	   23.0000 	   32.0000 	   25.8053
    1.0147 	   15.1715 	   23.0000 	   32.0000 	   25.9493
    1.2131 	   15.2420 	   23.0000 	   32.0000 	   26.0904
    1.0300 	   15.3145 	   23.0000 	   32.0000 	   26.2354
    1.1215 	   15.3865 	   23.0000 	   32.0000 	   26.3794
    1.0605 	   15.4585 	   23.0000 	   32.0000 	   26.5234
    1.1215 	   15.5265 	   23.0000 	   32.0000 	   26.6594
    1.1521 	   15.5900 	   23.0000 	   32.0000 	   26.7864
    1.0452 	   15.6535 	   23.0000 	   32.0000 	   26.9134
    1.1063 	   15.7185 	   23.0000 	   32.0000 	   27.0434
    1.2284 	   15.7870 	   23.0000 	   32.0000 	   27.1804
    1.0605 	   15.8580 	   23.0000 	   32.0000 	   27.3224
    1.0452 	   15.9290 	   23.0000 	   32.0000 	   27.4644
    1.1978 	   16.0000 	   23.0000 	   32.0000 	   27.6064
    1.0452 	   16.0700 	   23.0000 	   32.0000 	   27.7464
    1.0758 	   16.1390 	   23.0000 	   32.0000 	   27.8845
    1.0758 	   16.2095 	   23.0000 	   32.0000 	   28.0255
    1.2589 	   16.2780 	   23.0000 	   32.0000 	   28.1625
    1.1215 	   16.3530 	   23.0000 	   32.0000 	   28.3125
    1.0605 	   16.4195 	   23.0000 	   32.0000 	   28.4455
    0.9995 	   16.4915 	   23.0000 	   32.0000 	   28.5895
    1.2284 	   16.5640 	   23.0000 	   32.0000 	   28.7345
    1.1521 	   16.6375 	   23.0000 	   32.0000 	   28.8815
    1.1368 	   16.7115 	   23.0000 	   32.0000 	   29.0295
    1.1063 	   16.7790 	   23.0000 	   32.0000 	   29.1645
    1.0910 	   16.8430 	   23.0000 	   32.0000 	   29.2925
    1.2741 	   16.9115 	   23.0000 	   32.0000 	   29.4295
    1.2436 	   16.9835 	   23.0000 	   32.0000 	   29.5736
    1.2741 	   17.0610 	   23.0000 	   32.0000 	   29.7286
    1.1368 	   17.1305 	   23.0000 	   32.0000 	   29.8676
    1.3046 	   17.2025 	   23.0000 	   32.0000 	   30.0116
    1.2589 	   17.2740 	   23.0000 	   32.0000 	   30.1546
    1.2284 	   17.3475 	   23.0000 	   32.0000 	   30.3016
    1.3352 	   17.4190 	   23.0000 	   32.0000 	   30.4446
    1.2284 	   17.4880 	   23.0000 	   32.0000 	   30.5826
    1.4267 	   17.5595 	   23.0000 	   32.0000 	   30.7256
    1.0910 	   17.6320 	   23.0000 	   32.0000 	   30.8706
    1.2894 	   17.7045 	   23.0000 	   32.0000 	   31.0156
    1.1826 	   17.7735 	   23.0000 	   32.0000 	   31.1536
    1.3504 	   17.8390 	   23.0000 	   32.0000 	   31.2847
    1.2284 	   17.9090 	   23.0000 	   32.0000 	   31.4247
    1.2741 	   17.9815 	   23.0000 	   32.0000 	   31.5697
    1.2436 	   18.0505 	   23.0000 	   32.0000 	   31.7077
    1.1978 	   18.1210 	   23.0000 	   32.0000 	   31.8487
    1.3962 	   18.1925 	   23.0000 	   32.0000 	   31.9917
    1.1978 	   18.2640 	   23.0000 	   32.0000 	   32.1347
    1.3046 	   18.3360 	   23.0000 	   32.0000 	   32.2787
    1.3046 	   18.4085 	   23.0000 	   32.0000 	   32.4237
    1.3504 	   18.4790 	   23.0000 	   32.0000 	   32.5647
    1.2894 	   18.5515 	   23.0000 	   32.0000 	   32.7097
    1.2436 	   18.6220 	   23.0000 	   32.0000 	   32.8507
    1.2436 	   18.6930 	   23.0000 	   32.0000 	   32.9927
    1.3352 	   18.7650 	   23.0000 	   32.0000 	   33.1368
    1.2741 	   18.8355 	   23.0000 	   32.0000 	   33.2778
    1.2436 	   18.9070 	   23.0000 	   32.0000 	   33.4208
    1.5335 	   18.9800 	   23.0000 	   32.0000 	   33.5668
    1.2894 	   19.0600 	   23.0000 	   32.0000 	   33.7268
    1.4725 	   19.1330 	   23.0000 	   32.0000 	   33.8728
    1.3657 	   19.2060 	   23.0000 	   32.0000 	   34.0188
    1.1521 	   19.2800 	   23.0000 	   32.0000 	   34.1668
    1.5030 	   19.3515 	   23.0000 	   32.0000 	   34.3098
    1.3199 	   19.4245 	   23.0000 	   32.0000 	   34.4558
    1.5030 	   19.4955 	   23.0000 	   32.0000 	   34.5978
    1.4267 	   19.5695 	   23.0000 	   32.0000 	   34.7458
    1.3809 	   19.6425 	   23.0000 	   32.0000 	   34.8919
    1.5183 	   19.7155 	   23.0000 	   32.0000 	   35.0379
    1.4420 	   19.7875 	   23.0000 	   32.0000 	   35.1819
    1.3962 	   19.8610 	   23.0000 	   32.0000 	   35.3289
    1.4878 	   19.9330 	   23.0000 	   32.0000 	   35.4729
    1.5183 	   20.0045 	   23.0000 	   32.0000 	   35.6159
    1.3962 	   20.0840 	   23.0000 	   32.0000 	   35.7749
    1.3962 	   20.1575 	   23.0000 	   32.0000 	   35.9219
    1.4572 	   20.2300 	   23.0000 	   32.0000 	   36.0669
    1.4420 	   20.3010 	   23.0000 	   32.0000 	   36.2089
    1.3199 	   20.3720 	   23.0000 	   32.0000 	   36.3509
    1.4420 	   20.4455 	   23.0000 	   32.0000 	   36.4979
    1.4725 	   20.5185 	   23.0000 	   32.0000 	   36.6440
    1.4115 	   20.5925 	   23.0000 	   32.0000 	   36.7920
    1.6556 	   20.6650 	   23.0000 	   32.0000 	   36.9370
    1.5640 	   20.7375 	   23.0000 	   32.0000 	   37.0820
    1.5030 	   20.8090 	   23.0000 	   32.0000 	   37.2250
    1.4725 	   20.8785 	   23.0000 	   32.0000 	   37.3640
    1.4725 	   20.9425 	   23.0000 	   32.0000 	   37.4920
    1.4725 	   21.0085 	   23.0000 	   32.0000 	   37.6240
    1.6709 	   21.0785 	   23.0000 	   32.0000 	   37.7640
    1.4420 	   21.1495 	   23.0000 	   32.0000 	   37.9060
    1.5488 	   21.2205 	   23.0000 	   32.0000 	   38.0480
    1.5793 	   21.2935 	   23.0000 	   32.0000 	   38.1940
    1.6098 	   21.3660 	   23.0000 	   32.0000 	   38.3391
    1.5793 	   21.4365 	   23.0000 	   32.0000 	   38.4801
    1.6709 	   21.5100 	   23.0000 	   32.0000 	   38.6271
    1.5335 	   21.5860 	   23.0000 	   32.0000 	   38.7791
    1.4572 	   21.6590 	   23.0000 	   32.0000 	   38.9251
    1.5946 	   21.7320 	   23.0000 	   32.0000 	   39.0711
    1.5640 	   21.8055 	   23.0000 	   32.0000 	   39.2181
    1.6403 	   21.8770 	   23.0000 	   32.0000 	   39.3611
    1.8540 	   21.9505 	   23.0000 	   32.0000 	   39.5081
    1.6098 	   22.0255 	   23.0000 	   32.0000 	   39.6581
    1.6556 	   22.1015 	   23.0000 	   32.0000 	   39.8101
    1.6556 	   22.1725 	   23.0000 	   32.0000 	   39.9521
    1.7166 	   22.2460 	   23.0000 	   32.0000 	   40.0992
    1.6403 	   22.3190 	   23.0000 	   32.0000 	   40.2452
    1.6251 	   22.3915 	   23.0000 	   32.0000 	   40.3902
    1.6556 	   22.4635 	   23.0000 	   32.0000 	   40.5342
    1.8235 	   22.5400 	   23.0000 	   32.0000 	   40.6872
    1.8235 	   22.6135 	   23.0000 	   32.0000 	   40.8342
    1.8082 	   22.6880 	   23.0000 	   32.0000 	   40.9832
    1.7624 	   22.7590 	   23.0000 	   32.0000 	   41.1252
    1.8082 	   22.8315 	   23.0000 	   32.0000 	   41.2702
    1.6709 	   22.9060 	   23.0000 	   32.0000 	   41.4192
    1.6861 	   22.9810 	   23.0000 	   32.0000 	   41.5692
    1.8235 	   23.0620 	   23.0000 	   32.0000 	   41.7302
    1.7624 	   23.1380 	   23.0000 	   32.0000 	   41.8823
    1.8540 	   23.2105 	   23.0000 	   32.0000 	   42.0273
    1.8540 	   23.2835 	   23.0000 	   32.0000 	   42.1733
    1.8540 	   23.3555 	   23.0000 	   32.0000 	   42.3173
    1.7166 	   23.4310 	   23.0000 	   32.0000 	   42.4683
    1.7319 	   23.5055 	   23.0000 	   32.0000 	   42.6173
    1.8540 	   23.5805 	   23.0000 	   32.0000 	   42.7673
    1.9150 	   23.6540 	   23.0000 	   32.0000 	   42.9143
    1.8540 	   23.7240 	   23.0000 	   32.0000 	   43.0543
    1.7319 	   23.7925 	   23.0000 	   32.0000 	   43.1913
    2.0066 	   23.8585 	   23.0000 	   32.0000 	   43.3233
    1.7777 	   23.9290 	   23.0000 	   32.0000 	   43.4643
    1.9303 	   24.0025 	   23.0000 	   32.0000 	   43.6114
    1.5183 	   24.0825 	   23.0000 	   32.0000 	   43.7714
    1.8540 	   24.1560 	   23.0000 	   32.0000 	   43.9184
    1.7472 	   24.2305 	   23.0000 	   32.0000 	   44.0674
    1.8540 	   24.3020 	   23.0000 	   32.0000 	   44.2104
    1.8845 	   24.3765 	   23.0000 	   32.0000 	   44.3594
    1.9760 	   24.4505 	   23.0000 	   32.0000 	   44.5074
    1.9303 	   24.5255 	   23.0000 	   32.0000 	   44.6574
    1.8997 	   24.6020 	   23.0000 	   32.0000 	   44.8104
    1.9760 	   24.6765 	   23.0000 	   32.0000 	   44.9594
    1.9913 	   24.7485 	   23.0000 	   32.0000 	   45.1034
    1.8997 	   24.8155 	   23.0000 	   32.0000 	   45.2374
    2.1592 	   24.8815 	   23.0000 	   32.0000 	   45.3695
    2.0829 	   24.9535 	   23.0000 	   32.0000 	   45.5135
    2.0066 	   25.0270 	   23.0000 	   32.0000 	   45.6605
    2.0981 	   25.1025 	   23.0000 	   32.0000 	   45.8115
    2.0066 	   25.1765 	   23.0000 	   32.0000 	   45.9595
    2.0676 	   25.2505 	   23.0000 	   32.0000 	   46.1075
    2.0676 	   25.3230 	   23.0000 	   32.0000 	   46.2525
    2.0676 	   25.3970 	   23.0000 	   32.0000 	   46.4005
    2.0066 	   25.4650 	   23.0000 	   32.0000 	   46.5365
    2.0066 	   25.5320 	   23.0000 	   32.0000 	   46.6705
    2.1439 	   25.6010 	   23.0000 	   32.0000 	   46.8085
    2.0829 	   25.6745 	   23.0000 	   32.0000 	   46.9555
    2.2354 	   25.7480 	   23.0000 	   32.0000 	   47.1026
    2.3117 	   25.8225 	   23.0000 	   32.0000 	   47.2516
    2.0981 	   25.8965 	   23.0000 	   32.0000 	   47.3996
    2.0371 	   25.9710 	   23.0000 	   32.0000 	   47.5486
    2.1439 	   26.0475 	   23.0000 	   32.0000 	   47.7016
    2.0523 	   26.1200 	   23.0000 	   32.0000 	   47.8466
    2.1744 	   26.1965 	   23.0000 	   32.0000 	   47.9996
    2.1592 	   26.2720 	   23.0000 	   32.0000 	   48.1506
    2.0523 	   26.3435 	   23.0000 	   32.0000 	   48.2936
    2.2202 	   26.4110 	   23.0000 	   32.0000 	   48.4286
    2.1439 	   26.4780 	   23.0000 	   32.0000 	   48.5626
    2.1286 	   26.5490 	   23.0000 	   32.0000 	   48.7046
    2.1744 	   26.6160 	   23.0000 	   32.0000 	   48.8387
    2.2202 	   26.6825 	   23.0000 	   32.0000 	   48.9717
    2.0676 	   26.7480 	   23.0000 	   32.0000 	   49.1027
    2.3575 	   26.8155 	   23.0000 	   32.0000 	   49.2377
    2.3423 	   26.8815 	   23.0000 	   32.0000 	   49.3697
    2.2660 	   26.9485 	   23.0000 	   32.0000 	   49.5037
    2.4491 	   27.0260 	   23.0000 	   32.0000 	   49.6587
    2.4491 	   27.0925 	   23.0000 	   32.0000 	   49.7917
    2.3880 	   27.1590 	   23.0000 	   32.0000 	   49.9247
    2.4491 	   27.2245 	   23.0000 	   32.0000 	   50.0557
    2.5254 	   27.2920 	   23.0000 	   32.0000 	   50.1907
    2.2660 	   27.3605 	   23.0000 	   32.0000 	   50.3277
    2.5101 	   27.4295 	   23.0000 	   32.0000 	   50.4657
    2.4033 	   27.5010 	   23.0000 	   32.0000 	   50.6088
    2.1744 	   27.5780 	   23.0000 	   32.0000 	   50.7628
    2.2812 	   27.6510 	   23.0000 	   32.0000 	   50.9088
    2.3880 	   27.7245 	   23.0000 	   32.0000 	   51.0558
    2.5101 	   27.7965 	   23.0000 	   32.0000 	   51.1998
    2.4643 	   27.8690 	   23.0000 	   32.0000 	   51.3448
    2.4186 	   27.9365 	   23.0000 	   32.0000 	   51.4798
    2.4643 	   28.0040 	   23.0000 	   32.0000 	   51.6148
    2.4491 	   28.0730 	   23.0000 	   32.0000 	   51.7528
    2.6017 	   28.1405 	   23.0000 	   32.0000 	   51.8878
    2.4186 	   28.2075 	   23.0000 	   32.0000 	   52.0218
    2.6627 	   28.2740 	   23.0000 	   32.0000 	   52.1548
    2.6322 	   28.3395 	   23.0000 	   32.0000 	   52.2859
    2.5406 	   28.4085 	   23.0000 	   32.0000 	   52.4239
    2.6169 	   28.4750 	   23.0000 	   32.0000 	   52.5569
    2.3880 	   28.5435 	   23.0000 	   32.0000 	   52.6939
    2.5864 	   28.6095 	   23.0000 	   32.0000 	   52.8259
    2.6169 	   28.6785 	   23.0000 	   32.0000 	   52.9639
    2.6627 	   28.7460 	   23.0000 	   32.0000 	   53.0989
    2.6474 	   28.8160 	   23.0000 	   32.0000 	   53.2389
    2.6322 	   28.8920 	   23.0000 	   32.0000 	   53.3909
    2.5711 	   28.9675 	   23.0000 	   32.0000 	   53.5419
    2.6627 	   29.0475 	   23.0000 	   32.0000 	   53.7019
    2.7237 	   29.1210 	   23.0000 	   32.0000 	   53.8489
    2.6780 	   29.1985 	   23.0000 	   32.0000 	   54.0039
    2.5559 	   29.2730 	   23.0000 	   32.0000 	   54.1530
    2.6169 	   29.3430 	   23.0000 	   32.0000 	   54.2930
    2.7848 	   29.4095 	   23.0000 	   32.0000 	   54.4260
    2.4338 	   29.4765 	   23.0000 	   32.0000 	   54.5600
    2.5101 	   29.5430 	   23.0000 	   32.0000 	   54.6930
    2.7085 	   29.6160 	   23.0000 	   32.0000 	   54.8390
    2.7237 	   29.6910 	   23.0000 	   32.0000 	   54.9890
    2.7848 	   29.7685 	   23.0000 	   32.0000 	   55.1440
    2.5559 	   29.8425 	   23.0000 	   32.0000 	   55.2920
    2.8000 	   29.9145 	   23.0000 	   32.0000 	   55.4360
    2.8611 	   29.9825 	   23.0000 	   32.0000 	   55.5720
    2.8153 	   30.0520 	   23.0000 	   32.0000 	   55.7110
    2.8763 	   30.1190 	   23.0000 	   32.0000 	   55.8451
    2.7390 	   30.1890 	   23.0000 	   32.0000 	   55.9851
    2.9526 	   30.2575 	   23.0000 	   32.0000 	   56.1221
    2.8763 	   30.3250 	   23.0000 	   32.0000 	   56.2571
    2.9221 	   30.3920 	   23.0000 	   32.0000 	   56.3911
    3.0137 	   30.4590 	   23.0000 	   32.0000 	   56.5251
    2.8153 	   30.5280 	   23.0000 	   32.0000 	   56.6631
    3.0289 	   30.5955 	   23.0000 	   32.0000 	   56.7981
    2.9679 	   30.6660 	   23.0000 	   32.0000 	   56.9391
    2.9526 	   30.7355 	   23.0000 	   32.0000 	   57.0781
    2.9831 	   30.8085 	   23.0000 	   32.0000 	   57.2241
    3.0137 	   30.8840 	   23.0000 	   32.0000 	   57.3751
    2.8000 	   30.9605 	   23.0000 	   32.0000 	   57.5282
    2.8916 	   31.0415 	   23.0000 	   32.0000 	   57.6902
    3.0289 	   31.1315 	   23.0000 	   32.0000 	   57.8692
    2.9374 	   31.2055 	   23.0000 	   32.0000 	   58.0182
    3.0594 	   31.2830 	   23.0000 	   32.0000 	   58.1732
    3.0442 	   31.3610 	   23.0000 	   32.0000 	   58.3292
    3.1052 	   31.4370 	   23.0000 	   32.0000 	   58.4812
    2.9984 	   31.5140 	   23.0000 	   32.0000 	   58.6352
    3.1662 	   31.5890 	   23.0000 	   32.0000 	   58.7852
    3.0137 	   31.6670 	   23.0000 	   32.0000 	   58.9412
    2.9221 	   31.7425 	   23.0000 	   32.0000 	   59.0912
    3.1205 	   31.8180 	   23.0000 	   32.0000 	   59.2422
    3.1357 	   31.8865 	   23.0000 	   32.0000 	   59.3793
    3.1357 	   31.9560 	   23.0000 	   32.0000 	   59.5183
    3.1205 	   32.0260 	   23.0000 	   32.0000 	   59.6583
    3.1815 	   32.0990 	   23.0000 	   32.0000 	   59.8043
    3.1968 	   32.1695 	   23.0000 	   32.0000 	   59.9453
    3.1968 	   32.2465 	   23.0000 	   33.0000 	    0.0993
    3.2273 	   32.3200 	   23.0000 	   33.0000 	    0.2463
    3.1815 	   32.3880 	   23.0000 	   33.0000 	    0.3823
    3.3036 	   32.4560 	   23.0000 	   33.0000 	    0.5183
    3.3494 	   32.5345 	   23.0000 	   33.0000 	    0.6753
    3.2731 	   32.6085 	   23.0000 	   33.0000 	    0.8233
    3.3341 	   32.6860 	   23.0000 	   33.0000 	    0.9773
    3.3036 	   32.7625 	   23.0000 	   33.0000 	    1.1314
    3.2120 	   32.8400 	   23.0000 	   33.0000 	    1.2864
    3.3646 	   32.9165 	   23.0000 	   33.0000 	    1.4394
    3.4867 	   32.9915 	   23.0000 	   33.0000 	    1.5894
    3.3494 	   33.0700 	   23.0000 	   33.0000 	    1.7464
    3.4409 	   33.1440 	   23.0000 	   33.0000 	    1.8944
    3.4714 	   33.2175 	   23.0000 	   33.0000 	    2.0414
    3.4562 	   33.2930 	   23.0000 	   33.0000 	    2.1924
    3.4562 	   33.3725 	   23.0000 	   33.0000 	    2.3514
    3.5019 	   33.4490 	   23.0000 	   33.0000 	    2.5044
    3.3494 	   33.5255 	   23.0000 	   33.0000 	    2.6574
    3.4867 	   33.5995 	   23.0000 	   33.0000 	    2.8055
    3.4867 	   33.6750 	   23.0000 	   33.0000 	    2.9565
    3.4562 	   33.7440 	   23.0000 	   33.0000 	    3.0945
    3.5782 	   33.8140 	   23.0000 	   33.0000 	    3.2345
    3.6393 	   33.8850 	   23.0000 	   33.0000 	    3.3765
    3.5630 	   33.9560 	   23.0000 	   33.0000 	    3.5185
    3.4714 	   34.0315 	   23.0000 	   33.0000 	    3.6695
    3.5172 	   34.1035 	   23.0000 	   33.0000 	    3.8135
    3.6698 	   34.1765 	   23.0000 	   33.0000 	    3.9595
    3.6088 	   34.2525 	   23.0000 	   33.0000 	    4.1115
    3.6088 	   34.3290 	   23.0000 	   33.0000 	    4.2645
    3.5630 	   34.4060 	   23.0000 	   33.0000 	    4.4185
    3.6393 	   34.4855 	   23.0000 	   33.0000 	    4.5776
    3.6545 	   34.5645 	   23.0000 	   33.0000 	    4.7356
    3.7308 	   34.6395 	   23.0000 	   33.0000 	    4.8856
    3.7461 	   34.7165 	   23.0000 	   33.0000 	    5.0396
    3.6851 	   34.7930 	   23.0000 	   33.0000 	    5.1926
    3.7156 	   34.8720 	   23.0000 	   33.0000 	    5.3506
    3.5172 	   34.9485 	   23.0000 	   33.0000 	    5.5036
    3.7613 	   35.0275 	   23.0000 	   33.0000 	    5.6616
    3.7919 	   35.1090 	   23.0000 	   33.0000 	    5.8246
    3.7919 	   35.1860 	   23.0000 	   33.0000 	    5.9786
    3.9445 	   35.2645 	   23.0000 	   33.0000 	    6.1356
    3.8529 	   35.3435 	   23.0000 	   33.0000 	    6.2937
    3.8529 	   35.4215 	   23.0000 	   33.0000 	    6.4497
    3.8682 	   35.4975 	   23.0000 	   33.0000 	    6.6017
    3.8376 	   35.5745 	   23.0000 	   33.0000 	    6.7557
    3.9445 	   35.6520 	   23.0000 	   33.0000 	    6.9107
    3.8529 	   35.7280 	   23.0000 	   33.0000 	    7.0627
    3.8834 	   35.8045 	   23.0000 	   33.0000 	    7.2157
    3.9445 	   35.8825 	   23.0000 	   33.0000 	    7.3717
    3.7919 	   35.9520 	   23.0000 	   33.0000 	    7.5107
    3.9597 	   36.0260 	   23.0000 	   33.0000 	    7.6587
    3.9597 	   36.1040 	   23.0000 	   33.0000 	    7.8147
    3.9597 	   36.1755 	   23.0000 	   33.0000 	    7.9577
    3.9445 	   36.2490 	   23.0000 	   33.0000 	    8.1048
    4.2039 	   36.3270 	   23.0000 	   33.0000 	    8.2608
    4.1581 	   36.4080 	   23.0000 	   33.0000 	    8.4228
    4.1428 	   36.4865 	   23.0000 	   33.0000 	    8.5798
    3.9292 	   36.5665 	   23.0000 	   33.0000 	    8.7398
    4.1276 	   36.6450 	   23.0000 	   33.0000 	    8.8968
    4.1276 	   36.7220 	   23.0000 	   33.0000 	    9.0508
    4.2191 	   36.7995 	   23.0000 	   33.0000 	    9.2058
    4.2496 	   36.8775 	   23.0000 	   33.0000 	    9.3618
    4.2649 	   36.9495 	   23.0000 	   33.0000 	    9.5058
    4.1886 	   37.0270 	   23.0000 	   33.0000 	    9.6608
    4.2344 	   37.1060 	   23.0000 	   33.0000 	    9.8189
    4.1276 	   37.1830 	   23.0000 	   33.0000 	    9.9729
    4.2496 	   37.2615 	   23.0000 	   33.0000 	   10.1299
    4.2954 	   37.3395 	   23.0000 	   33.0000 	   10.2859
    4.2191 	   37.4170 	   23.0000 	   33.0000 	   10.4409
    4.3565 	   37.4955 	   23.0000 	   33.0000 	   10.5979
    4.1886 	   37.5735 	   23.0000 	   33.0000 	   10.7539
    4.2039 	   37.6450 	   23.0000 	   33.0000 	   10.8969
    4.2344 	   37.7160 	   23.0000 	   33.0000 	   11.0389
    4.2649 	   37.7875 	   23.0000 	   33.0000 	   11.1819
    4.3565 	   37.8575 	   23.0000 	   33.0000 	   11.3219
    4.2649 	   37.9330 	   23.0000 	   33.0000 	   11.4729
    4.2344 	   38.0080 	   23.0000 	   33.0000 	   11.6230
    4.3717 	   38.0815 	   23.0000 	   33.0000 	   11.7700
    4.3565 	   38.1565 	   23.0000 	   33.0000 	   11.9200
    4.4327 	   38.2310 	   23.0000 	   33.0000 	   12.0690
    4.3412 	   38.3050 	   23.0000 	   33.0000 	   12.2170
    4.4938 	   38.3795 	   23.0000 	   33.0000 	   12.3660
    4.4480 	   38.4505 	   23.0000 	   33.0000 	   12.5080
    4.1733 	   38.5215 	   23.0000 	   33.0000 	   12.6500
    4.5701 	   38.5930 	   23.0000 	   33.0000 	   12.7930
    4.4938 	   38.6645 	   23.0000 	   33.0000 	   12.9360
    4.2802 	   38.7360 	   23.0000 	   33.0000 	   13.0790
    4.5243 	   38.8095 	   23.0000 	   33.0000 	   13.2260
    4.5548 	   38.8835 	   23.0000 	   33.0000 	   13.3741
    4.5243 	   38.9555 	   23.0000 	   33.0000 	   13.5181
    4.3870 	   39.0265 	   23.0000 	   33.0000 	   13.6601
    4.6006 	   39.1070 	   23.0000 	   33.0000 	   13.8211
    4.5548 	   39.1785 	   23.0000 	   33.0000 	   13.9641
    4.4480 	   39.2485 	   23.0000 	   33.0000 	   14.1041
    4.6464 	   39.3205 	   23.0000 	   33.0000 	   14.2481
    4.6006 	   39.3905 	   23.0000 	   33.0000 	   14.3881
    4.5853 	   39.4655 	   23.0000 	   33.0000 	   14.5381
    4.6311 	   39.5445 	   23.0000 	   33.0000 	   14.6961
    4.6616 	   39.6255 	   23.0000 	   33.0000 	   14.8581
    4.7074 	   39.7015 	   23.0000 	   33.0000 	   15.0102
    4.6464 	   39.7805 	   23.0000 	   33.0000 	   15.1682
    4.7532 	   39.8635 	   23.0000 	   33.0000 	   15.3342
    4.7990 	   39.9420 	   23.0000 	   33.0000 	   15.4912
    4.6921 	   40.0255 	   23.0000 	   33.0000 	   15.6582
    4.8600 	   40.1055 	   23.0000 	   33.0000 	   15.8182
    4.7227 	   40.1845 	   23.0000 	   33.0000 	   15.9762
    4.8295 	   40.2630 	   23.0000 	   33.0000 	   16.1332
    4.7684 	   40.3435 	   23.0000 	   33.0000 	   16.2942
    4.8295 	   40.4215 	   23.0000 	   33.0000 	   16.4502
    4.8295 	   40.5020 	   23.0000 	   33.0000 	   16.6102
    4.7990 	   40.5810 	   23.0000 	   33.0000 	   16.7683
    4.7837 	   40.6615 	   23.0000 	   33.0000 	   16.9293
    4.7684 	   40.7390 	   23.0000 	   33.0000 	   17.0843
    4.8295 	   40.8235 	   23.0000 	   33.0000 	   17.2533
    4.9821 	   40.9035 	   23.0000 	   33.0000 	   17.4133
    5.1041 	   40.9815 	   23.0000 	   33.0000 	   17.5693
    5.1041 	   41.0650 	   23.0000 	   33.0000 	   17.7363
    4.9210 	   41.1405 	   23.0000 	   33.0000 	   17.8873
    5.0126 	   41.2120 	   23.0000 	   33.0000 	   18.0303
    5.0889 	   41.2890 	   23.0000 	   33.0000 	   18.1843
    5.0431 	   41.3680 	   23.0000 	   33.0000 	   18.3423
    5.0126 	   41.4485 	   23.0000 	   33.0000 	   18.5034
    4.9363 	   41.5280 	   23.0000 	   33.0000 	   18.6624
    4.9363 	   41.6090 	   23.0000 	   33.0000 	   18.8244
    5.0278 	   41.6880 	   23.0000 	   33.0000 	   18.9824
    5.0584 	   41.7675 	   23.0000 	   33.0000 	   19.1414
    5.1652 	   41.8460 	   23.0000 	   33.0000 	   19.2984
    5.1499 	   41.9250 	   23.0000 	   33.0000 	   19.4564
    4.9516 	   42.0025 	   23.0000 	   33.0000 	   19.6114
    5.1194 	   42.0755 	   23.0000 	   33.0000 	   19.7574
    5.0126 	   42.1490 	   23.0000 	   33.0000 	   19.9044
    5.1652 	   42.2245 	   23.0000 	   33.0000 	   20.0554
    5.0584 	   42.2975 	   23.0000 	   33.0000 	   20.2014
    5.1804 	   42.3785 	   23.0000 	   33.0000 	   20.3635
    5.0889 	   42.4575 	   23.0000 	   33.0000 	   20.5215
    5.1194 	   42.5390 	   23.0000 	   33.0000 	   20.6845
    5.1957 	   42.6210 	   23.0000 	   33.0000 	   20.8485
    5.3635 	   42.7025 	   23.0000 	   33.0000 	   21.0115
    5.2720 	   42.7760 	   23.0000 	   33.0000 	   21.1585
    5.3330 	   42.8485 	   23.0000 	   33.0000 	   21.3035
    5.2262 	   42.9235 	   23.0000 	   33.0000 	   21.4535
    5.2262 	   43.0045 	   23.0000 	   33.0000 	   21.6155
    5.2567 	   43.0880 	   23.0000 	   33.0000 	   21.7825
    5.4398 	   43.1695 	   23.0000 	   33.0000 	   21.9455
    5.6687 	   43.2500 	   23.0000 	   33.0000 	   22.1066
    5.4551 	   43.3330 	   23.0000 	   33.0000 	   22.2726
    5.2567 	   43.4130 	   23.0000 	   33.0000 	   22.4326
    5.3025 	   43.4900 	   23.0000 	   33.0000 	   22.5866
    5.4246 	   43.5710 	   23.0000 	   33.0000 	   22.7486
    5.4551 	   43.6505 	   23.0000 	   33.0000 	   22.9076
    5.4551 	   43.7285 	   23.0000 	   33.0000 	   23.0636
    5.4246 	   43.8070 	   23.0000 	   33.0000 	   23.2196
    5.5009 	   43.8860 	   23.0000 	   33.0000 	   23.3786
    5.4398 	   43.9590 	   23.0000 	   33.0000 	   23.5246
    5.5314 	   44.0340 	   23.0000 	   33.0000 	   23.6746
    5.4704 	   44.1110 	   23.0000 	   33.0000 	   23.8287
    5.5467 	   44.1910 	   23.0000 	   33.0000 	   23.9887
    5.4856 	   44.2710 	   23.0000 	   33.0000 	   24.1487
    5.4246 	   44.3460 	   23.0000 	   33.0000 	   24.2987
    5.6229 	   44.4190 	   23.0000 	   33.0000 	   24.4447
    5.5161 	   44.5000 	   23.0000 	   33.0000 	   24.6067
    5.6840 	   44.5840 	   23.0000 	   33.0000 	   24.7747
    5.5924 	   44.6635 	   23.0000 	   33.0000 	   24.9337
    5.7603 	   44.7425 	   23.0000 	   33.0000 	   25.0917
    5.5161 	   44.8145 	   23.0000 	   33.0000 	   25.2357
    5.6535 	   44.8870 	   23.0000 	   33.0000 	   25.3807
    5.7145 	   44.9620 	   23.0000 	   33.0000 	   25.5308
    5.7145 	   45.0350 	   23.0000 	   33.0000 	   25.6768
    5.6382 	   45.1110 	   23.0000 	   33.0000 	   25.8288
    5.6840 	   45.1865 	   23.0000 	   33.0000 	   25.9798
    5.6077 	   45.2595 	   23.0000 	   33.0000 	   26.1258
    5.7908 	   45.3320 	   23.0000 	   33.0000 	   26.2708
    5.6992 	   45.4045 	   23.0000 	   33.0000 	   26.4158
    5.4856 	   45.4795 	   23.0000 	   33.0000 	   26.5658
    5.7450 	   45.5540 	   23.0000 	   33.0000 	   26.7148
    5.7145 	   45.6305 	   23.0000 	   33.0000 	   26.8678
    5.8976 	   45.7130 	   23.0000 	   33.0000 	   27.0328
    5.9434 	   45.7950 	   23.0000 	   33.0000 	   27.1968
    5.8061 	   45.8750 	   23.0000 	   33.0000 	   27.3569
    5.8976 	   45.9545 	   23.0000 	   33.0000 	   27.5159
    5.8976 	   46.0350 	   23.0000 	   33.0000 	   27.6769
    5.8366 	   46.1175 	   23.0000 	   33.0000 	   27.8419
    6.0044 	   46.1935 	   23.0000 	   33.0000 	   27.9939
    5.9434 	   46.2705 	   23.0000 	   33.0000 	   28.1479
    5.9129 	   46.3515 	   23.0000 	   33.0000 	   28.3099
    5.8976 	   46.4355 	   23.0000 	   33.0000 	   28.4779
    5.9586 	   46.5170 	   23.0000 	   33.0000 	   28.6409
    6.0502 	   46.5935 	   23.0000 	   33.0000 	   28.7939
    5.9281 	   46.6675 	   23.0000 	   33.0000 	   28.9419
    6.1112 	   46.7405 	   23.0000 	   33.0000 	   29.0880
    6.0197 	   46.8145 	   23.0000 	   33.0000 	   29.2360
    5.8824 	   46.8905 	   23.0000 	   33.0000 	   29.3880
    5.9739 	   46.9660 	   23.0000 	   33.0000 	   29.5390
    6.1265 	   47.0430 	   23.0000 	   33.0000 	   29.6930
    5.9739 	   47.0800 	   23.0000 	   33.0000 	   29.7670