File: instron/independence/size/length/b_l20w3_40_30.txt
Thayer School of Engineering        Instron 4442 Mechanical Testing System
7/5/2018 11:08:41 PM

  Force (N)	Extension (mm)	Not Used	Not Used	Not Used	     Hour	    Minute	    Second
    0.6638 	    0.5130 	   23.0000 	    8.0000 	   52.8025
    0.6180 	    0.5905 	   23.0000 	    8.0000 	   52.9575
    0.4349 	    0.6715 	   23.0000 	    8.0000 	   53.1195
    0.5722 	    0.7505 	   23.0000 	    8.0000 	   53.2775
    0.6638 	    0.8305 	   23.0000 	    8.0000 	   53.4376
    0.6027 	    0.9100 	   23.0000 	    8.0000 	   53.5966
    0.6180 	    0.9860 	   23.0000 	    8.0000 	   53.7486
    0.6027 	    1.0700 	   23.0000 	    8.0000 	   53.9166
    0.6027 	    1.1525 	   23.0000 	    8.0000 	   54.0816
    0.5875 	    1.2290 	   23.0000 	    8.0000 	   54.2346
    0.6332 	    1.2970 	   23.0000 	    8.0000 	   54.3706
    0.5417 	    1.3730 	   23.0000 	    8.0000 	   54.5226
    0.6638 	    1.4470 	   23.0000 	    8.0000 	   54.6706
    0.6638 	    1.5250 	   23.0000 	    8.0000 	   54.8266
    0.7401 	    1.5970 	   23.0000 	    8.0000 	   54.9706
    0.5722 	    1.6575 	   23.0000 	    8.0000 	   55.0916
    0.6790 	    1.7190 	   23.0000 	    8.0000 	   55.2147
    0.6332 	    1.7660 	   23.0000 	    8.0000 	   55.3087
    0.6943 	    1.8265 	   23.0000 	    8.0000 	   55.4297
    0.6790 	    1.8775 	   23.0000 	    8.0000 	   55.5317
    0.8774 	    1.9250 	   23.0000 	    8.0000 	   55.6267
    0.7553 	    1.9750 	   23.0000 	    8.0000 	   55.7267
    0.7553 	    2.0240 	   23.0000 	    8.0000 	   55.8247
    0.7858 	    2.0725 	   23.0000 	    8.0000 	   55.9217
    0.6027 	    2.1190 	   23.0000 	    8.0000 	   56.0147
    0.6790 	    2.1665 	   23.0000 	    8.0000 	   56.1097
    0.8469 	    2.2145 	   23.0000 	    8.0000 	   56.2057
    0.7401 	    2.2635 	   23.0000 	    8.0000 	   56.3037
    0.6485 	    2.3135 	   23.0000 	    8.0000 	   56.4037
    0.6485 	    2.3615 	   23.0000 	    8.0000 	   56.4997
    0.8011 	    2.4090 	   23.0000 	    8.0000 	   56.5947
    0.6332 	    2.4580 	   23.0000 	    8.0000 	   56.6927
    0.6180 	    2.5080 	   23.0000 	    8.0000 	   56.7927
    0.6790 	    2.5585 	   23.0000 	    8.0000 	   56.8938
    0.6332 	    2.6085 	   23.0000 	    8.0000 	   56.9938
    0.6638 	    2.6600 	   23.0000 	    8.0000 	   57.0968
    0.6943 	    2.7075 	   23.0000 	    8.0000 	   57.1918
    0.7401 	    2.7535 	   23.0000 	    8.0000 	   57.2838
    0.7401 	    2.7995 	   23.0000 	    8.0000 	   57.3758
    0.5722 	    2.8470 	   23.0000 	    8.0000 	   57.4708
    0.6790 	    2.8940 	   23.0000 	    8.0000 	   57.5648
    0.6332 	    2.9420 	   23.0000 	    8.0000 	   57.6608
    0.6790 	    2.9885 	   23.0000 	    8.0000 	   57.7538
    0.7095 	    3.0340 	   23.0000 	    8.0000 	   57.8448
    0.7095 	    3.0795 	   23.0000 	    8.0000 	   57.9358
    0.6943 	    3.1270 	   23.0000 	    8.0000 	   58.0308
    0.7401 	    3.1745 	   23.0000 	    8.0000 	   58.1258
    0.7095 	    3.2215 	   23.0000 	    8.0000 	   58.2198
    0.6943 	    3.2685 	   23.0000 	    8.0000 	   58.3138
    0.6332 	    3.3160 	   23.0000 	    8.0000 	   58.4088
    0.6180 	    3.3635 	   23.0000 	    8.0000 	   58.5038
    0.6485 	    3.4085 	   23.0000 	    8.0000 	   58.5938
    0.6332 	    3.4560 	   23.0000 	    8.0000 	   58.6889
    0.8011 	    3.5040 	   23.0000 	    8.0000 	   58.7849
    0.8621 	    3.5515 	   23.0000 	    8.0000 	   58.8799
    0.6485 	    3.5975 	   23.0000 	    8.0000 	   58.9719
    0.6332 	    3.6425 	   23.0000 	    8.0000 	   59.0619
    0.7401 	    3.6910 	   23.0000 	    8.0000 	   59.1589
    0.6180 	    3.7380 	   23.0000 	    8.0000 	   59.2529
    0.6485 	    3.7875 	   23.0000 	    8.0000 	   59.3519
    0.6790 	    3.8365 	   23.0000 	    8.0000 	   59.4499
    0.7553 	    3.8850 	   23.0000 	    8.0000 	   59.5469
    0.5722 	    3.9410 	   23.0000 	    8.0000 	   59.6589
    0.7706 	    3.9880 	   23.0000 	    8.0000 	   59.7529
    0.7706 	    4.0360 	   23.0000 	    8.0000 	   59.8489
    0.6180 	    4.0815 	   23.0000 	    8.0000 	   59.9399
    0.6332 	    4.1275 	   23.0000 	    9.0000 	    0.0319
    0.6485 	    4.1750 	   23.0000 	    9.0000 	    0.1269
    0.7553 	    4.2200 	   23.0000 	    9.0000 	    0.2169
    0.6638 	    4.2695 	   23.0000 	    9.0000 	    0.3159
    0.5722 	    4.3160 	   23.0000 	    9.0000 	    0.4090
    0.6638 	    4.3625 	   23.0000 	    9.0000 	    0.5020
    0.7553 	    4.4085 	   23.0000 	    9.0000 	    0.5940
    0.6790 	    4.4585 	   23.0000 	    9.0000 	    0.6940
    0.7553 	    4.5040 	   23.0000 	    9.0000 	    0.7850
    0.7248 	    4.5525 	   23.0000 	    9.0000 	    0.8820
    0.6180 	    4.5995 	   23.0000 	    9.0000 	    0.9760
    0.7248 	    4.6480 	   23.0000 	    9.0000 	    1.0730
    0.8621 	    4.6950 	   23.0000 	    9.0000 	    1.1670
    0.7858 	    4.7420 	   23.0000 	    9.0000 	    1.2610
    0.6180 	    4.7875 	   23.0000 	    9.0000 	    1.3520
    0.8164 	    4.8375 	   23.0000 	    9.0000 	    1.4520
    0.6332 	    4.8850 	   23.0000 	    9.0000 	    1.5470
    0.6485 	    4.9345 	   23.0000 	    9.0000 	    1.6460
    0.7858 	    4.9810 	   23.0000 	    9.0000 	    1.7390
    0.5264 	    5.0280 	   23.0000 	    9.0000 	    1.8330
    0.7095 	    5.0780 	   23.0000 	    9.0000 	    1.9330
    0.8164 	    5.1245 	   23.0000 	    9.0000 	    2.0260
    0.7553 	    5.1735 	   23.0000 	    9.0000 	    2.1241
    0.6180 	    5.2205 	   23.0000 	    9.0000 	    2.2181
    0.6485 	    5.2725 	   23.0000 	    9.0000 	    2.3221
    0.6027 	    5.3195 	   23.0000 	    9.0000 	    2.4161
    0.6180 	    5.3705 	   23.0000 	    9.0000 	    2.5171
    0.7858 	    5.4175 	   23.0000 	    9.0000 	    2.6111
    0.6790 	    5.4670 	   23.0000 	    9.0000 	    2.7101
    0.6332 	    5.5145 	   23.0000 	    9.0000 	    2.8051
    0.6180 	    5.5640 	   23.0000 	    9.0000 	    2.9041
    0.7553 	    5.6130 	   23.0000 	    9.0000 	    3.0021
    0.8164 	    5.6625 	   23.0000 	    9.0000 	    3.1011
    0.7401 	    5.7110 	   23.0000 	    9.0000 	    3.1981
    0.8469 	    5.7610 	   23.0000 	    9.0000 	    3.2981
    0.7401 	    5.8060 	   23.0000 	    9.0000 	    3.3881
    0.8621 	    5.8550 	   23.0000 	    9.0000 	    3.4861
    0.7706 	    5.9015 	   23.0000 	    9.0000 	    3.5791
    0.6790 	    5.9585 	   23.0000 	    9.0000 	    3.6931
    0.6943 	    6.0045 	   23.0000 	    9.0000 	    3.7851
    0.6485 	    6.0555 	   23.0000 	    9.0000 	    3.8872
    0.7553 	    6.1040 	   23.0000 	    9.0000 	    3.9842
    0.7553 	    6.1540 	   23.0000 	    9.0000 	    4.0842
    0.8164 	    6.2005 	   23.0000 	    9.0000 	    4.1772
    0.7553 	    6.2495 	   23.0000 	    9.0000 	    4.2752
    0.6638 	    6.2970 	   23.0000 	    9.0000 	    4.3702
    0.6485 	    6.3435 	   23.0000 	    9.0000 	    4.4632
    0.8164 	    6.3925 	   23.0000 	    9.0000 	    4.5612
    0.8164 	    6.4420 	   23.0000 	    9.0000 	    4.6602
    0.7706 	    6.4915 	   23.0000 	    9.0000 	    4.7592
    0.6638 	    6.5395 	   23.0000 	    9.0000 	    4.8552
    0.7401 	    6.5895 	   23.0000 	    9.0000 	    4.9552
    0.6943 	    6.6395 	   23.0000 	    9.0000 	    5.0552
    0.5722 	    6.6890 	   23.0000 	    9.0000 	    5.1542
    0.6790 	    6.7365 	   23.0000 	    9.0000 	    5.2492
    0.6943 	    6.7855 	   23.0000 	    9.0000 	    5.3472
    0.5570 	    6.8360 	   23.0000 	    9.0000 	    5.4482
    0.5264 	    6.8840 	   23.0000 	    9.0000 	    5.5442
    0.6943 	    6.9315 	   23.0000 	    9.0000 	    5.6393
    0.7858 	    6.9805 	   23.0000 	    9.0000 	    5.7373
    0.8469 	    7.0305 	   23.0000 	    9.0000 	    5.8373
    0.7858 	    7.0825 	   23.0000 	    9.0000 	    5.9413
    0.7095 	    7.1320 	   23.0000 	    9.0000 	    6.0403
    0.6790 	    7.1810 	   23.0000 	    9.0000 	    6.1383
    0.7248 	    7.2310 	   23.0000 	    9.0000 	    6.2383
    0.7553 	    7.2820 	   23.0000 	    9.0000 	    6.3403
    0.6943 	    7.3305 	   23.0000 	    9.0000 	    6.4373
    0.7401 	    7.3795 	   23.0000 	    9.0000 	    6.5353
    0.6332 	    7.4295 	   23.0000 	    9.0000 	    6.6353
    0.8011 	    7.4795 	   23.0000 	    9.0000 	    6.7353
    0.6180 	    7.5290 	   23.0000 	    9.0000 	    6.8343
    0.7706 	    7.5780 	   23.0000 	    9.0000 	    6.9323
    0.8164 	    7.6270 	   23.0000 	    9.0000 	    7.0303
    0.7095 	    7.6770 	   23.0000 	    9.0000 	    7.1303
    0.6943 	    7.7245 	   23.0000 	    9.0000 	    7.2253
    0.6332 	    7.7755 	   23.0000 	    9.0000 	    7.3273
    0.7706 	    7.8240 	   23.0000 	    9.0000 	    7.4244
    0.6943 	    7.8690 	   23.0000 	    9.0000 	    7.5144
    0.7553 	    7.9170 	   23.0000 	    9.0000 	    7.6104
    0.7858 	    7.9720 	   23.0000 	    9.0000 	    7.7204
    0.8011 	    8.0200 	   23.0000 	    9.0000 	    7.8164
    0.7858 	    8.0695 	   23.0000 	    9.0000 	    7.9154
    0.6638 	    8.1185 	   23.0000 	    9.0000 	    8.0134
    0.7553 	    8.1680 	   23.0000 	    9.0000 	    8.1124
    0.7706 	    8.2155 	   23.0000 	    9.0000 	    8.2074
    0.7095 	    8.2670 	   23.0000 	    9.0000 	    8.3104
    0.7706 	    8.3165 	   23.0000 	    9.0000 	    8.4094
    0.7401 	    8.3655 	   23.0000 	    9.0000 	    8.5074
    0.6485 	    8.4145 	   23.0000 	    9.0000 	    8.6054
    0.8469 	    8.4670 	   23.0000 	    9.0000 	    8.7104
    0.8011 	    8.5150 	   23.0000 	    9.0000 	    8.8064
    0.8164 	    8.5645 	   23.0000 	    9.0000 	    8.9054
    0.7553 	    8.6145 	   23.0000 	    9.0000 	    9.0054
    0.6332 	    8.6660 	   23.0000 	    9.0000 	    9.1084
    0.7706 	    8.7160 	   23.0000 	    9.0000 	    9.2085
    0.5875 	    8.7665 	   23.0000 	    9.0000 	    9.3095
    0.6943 	    8.8115 	   23.0000 	    9.0000 	    9.3995
    0.7858 	    8.8570 	   23.0000 	    9.0000 	    9.4905
    0.6027 	    8.9055 	   23.0000 	    9.0000 	    9.5875
    0.7706 	    8.9580 	   23.0000 	    9.0000 	    9.6925
    0.5264 	    9.0075 	   23.0000 	    9.0000 	    9.7915
    0.7706 	    9.0600 	   23.0000 	    9.0000 	    9.8965
    0.7553 	    9.1090 	   23.0000 	    9.0000 	    9.9945
    0.7095 	    9.1605 	   23.0000 	    9.0000 	   10.0975
    0.7401 	    9.2090 	   23.0000 	    9.0000 	   10.1945
    0.8011 	    9.2620 	   23.0000 	    9.0000 	   10.3005
    0.6943 	    9.3140 	   23.0000 	    9.0000 	   10.4045
    0.8927 	    9.3640 	   23.0000 	    9.0000 	   10.5045
    0.7858 	    9.4150 	   23.0000 	    9.0000 	   10.6065
    0.8774 	    9.4660 	   23.0000 	    9.0000 	   10.7085
    0.8621 	    9.5165 	   23.0000 	    9.0000 	   10.8095
    0.6638 	    9.5665 	   23.0000 	    9.0000 	   10.9096
    0.7553 	    9.6165 	   23.0000 	    9.0000 	   11.0096
    0.7401 	    9.6630 	   23.0000 	    9.0000 	   11.1026
    0.8164 	    9.7140 	   23.0000 	    9.0000 	   11.2046
    0.7401 	    9.7585 	   23.0000 	    9.0000 	   11.2936
    0.7706 	    9.8060 	   23.0000 	    9.0000 	   11.3886
    0.8316 	    9.8530 	   23.0000 	    9.0000 	   11.4826
    0.7706 	    9.8980 	   23.0000 	    9.0000 	   11.5726
    0.7095 	    9.9425 	   23.0000 	    9.0000 	   11.6616
    0.6943 	    9.9885 	   23.0000 	    9.0000 	   11.7536
    0.7553 	   10.0395 	   23.0000 	    9.0000 	   11.8556
    0.7248 	   10.0890 	   23.0000 	    9.0000 	   11.9546
    0.6332 	   10.1430 	   23.0000 	    9.0000 	   12.0626
    0.8164 	   10.1940 	   23.0000 	    9.0000 	   12.1646
    0.9537 	   10.2425 	   23.0000 	    9.0000 	   12.2616
    0.7095 	   10.2940 	   23.0000 	    9.0000 	   12.3646
    0.7095 	   10.3455 	   23.0000 	    9.0000 	   12.4676
    0.8011 	   10.3915 	   23.0000 	    9.0000 	   12.5596
    0.8621 	   10.4380 	   23.0000 	    9.0000 	   12.6527
    0.6638 	   10.4890 	   23.0000 	    9.0000 	   12.7547
    0.7706 	   10.5405 	   23.0000 	    9.0000 	   12.8577
    0.9079 	   10.5920 	   23.0000 	    9.0000 	   12.9607
    0.8011 	   10.6450 	   23.0000 	    9.0000 	   13.0667
    0.8316 	   10.6970 	   23.0000 	    9.0000 	   13.1707
    0.6790 	   10.7480 	   23.0000 	    9.0000 	   13.2727
    0.8011 	   10.7995 	   23.0000 	    9.0000 	   13.3757
    0.8621 	   10.8545 	   23.0000 	    9.0000 	   13.4857
    0.6485 	   10.9060 	   23.0000 	    9.0000 	   13.5887
    0.8316 	   10.9585 	   23.0000 	    9.0000 	   13.6937
    0.8621 	   11.0090 	   23.0000 	    9.0000 	   13.7947
    0.7095 	   11.0615 	   23.0000 	    9.0000 	   13.8997
    0.7858 	   11.1140 	   23.0000 	    9.0000 	   14.0047
    0.9079 	   11.1640 	   23.0000 	    9.0000 	   14.1047
    0.7553 	   11.2155 	   23.0000 	    9.0000 	   14.2077
    0.7858 	   11.2705 	   23.0000 	    9.0000 	   14.3177
    0.5570 	   11.3225 	   23.0000 	    9.0000 	   14.4218
    0.7858 	   11.3750 	   23.0000 	    9.0000 	   14.5268
    0.8316 	   11.4260 	   23.0000 	    9.0000 	   14.6288
    0.7401 	   11.4815 	   23.0000 	    9.0000 	   14.7398
    0.7553 	   11.5320 	   23.0000 	    9.0000 	   14.8408
    0.8164 	   11.5840 	   23.0000 	    9.0000 	   14.9448
    0.8316 	   11.6395 	   23.0000 	    9.0000 	   15.0558
    0.7553 	   11.6915 	   23.0000 	    9.0000 	   15.1598
    0.8164 	   11.7440 	   23.0000 	    9.0000 	   15.2648
    0.8164 	   11.7965 	   23.0000 	    9.0000 	   15.3698
    0.8011 	   11.8510 	   23.0000 	    9.0000 	   15.4788
    0.8164 	   11.9030 	   23.0000 	    9.0000 	   15.5828
    0.8927 	   11.9540 	   23.0000 	    9.0000 	   15.6848
    0.9384 	   12.0060 	   23.0000 	    9.0000 	   15.7888
    0.8316 	   12.0595 	   23.0000 	    9.0000 	   15.8958
    0.8316 	   12.1115 	   23.0000 	    9.0000 	   15.9998
    0.8469 	   12.1640 	   23.0000 	    9.0000 	   16.1049
    0.7553 	   12.2150 	   23.0000 	    9.0000 	   16.2069
    0.7553 	   12.2700 	   23.0000 	    9.0000 	   16.3169
    0.8927 	   12.3240 	   23.0000 	    9.0000 	   16.4249
    0.8621 	   12.3760 	   23.0000 	    9.0000 	   16.5289
    0.7401 	   12.4275 	   23.0000 	    9.0000 	   16.6319
    0.7553 	   12.4805 	   23.0000 	    9.0000 	   16.7379
    0.8316 	   12.5340 	   23.0000 	    9.0000 	   16.8449
    0.7858 	   12.5900 	   23.0000 	    9.0000 	   16.9569
    0.7858 	   12.6425 	   23.0000 	    9.0000 	   17.0619
    0.7858 	   12.6955 	   23.0000 	    9.0000 	   17.1679
    0.4654 	   12.7470 	   23.0000 	    9.0000 	   17.2709
    0.9689 	   12.7995 	   23.0000 	    9.0000 	   17.3759
    0.7095 	   12.8515 	   23.0000 	    9.0000 	   17.4799
    0.8316 	   12.9040 	   23.0000 	    9.0000 	   17.5849
    0.8316 	   12.9610 	   23.0000 	    9.0000 	   17.6989
    0.8469 	   13.0155 	   23.0000 	    9.0000 	   17.8079
    0.8011 	   13.0725 	   23.0000 	    9.0000 	   17.9220
    0.8011 	   13.1270 	   23.0000 	    9.0000 	   18.0310
    0.7553 	   13.1815 	   23.0000 	    9.0000 	   18.1400
    0.9384 	   13.2330 	   23.0000 	    9.0000 	   18.2430
    0.8011 	   13.2880 	   23.0000 	    9.0000 	   18.3530
    0.6485 	   13.3420 	   23.0000 	    9.0000 	   18.4610
    0.6638 	   13.3960 	   23.0000 	    9.0000 	   18.5690
    0.8164 	   13.4485 	   23.0000 	    9.0000 	   18.6740
    0.8469 	   13.5025 	   23.0000 	    9.0000 	   18.7820
    0.6943 	   13.5575 	   23.0000 	    9.0000 	   18.8920
    0.9079 	   13.6120 	   23.0000 	    9.0000 	   19.0010
    0.8164 	   13.6630 	   23.0000 	    9.0000 	   19.1030
    0.8316 	   13.7165 	   23.0000 	    9.0000 	   19.2100
    0.7553 	   13.7720 	   23.0000 	    9.0000 	   19.3210
    0.8927 	   13.8290 	   23.0000 	    9.0000 	   19.4350
    0.7553 	   13.8830 	   23.0000 	    9.0000 	   19.5430
    0.7553 	   13.9405 	   23.0000 	    9.0000 	   19.6581
    0.6790 	   13.9930 	   23.0000 	    9.0000 	   19.7631
    0.8469 	   14.0475 	   23.0000 	    9.0000 	   19.8721
    0.9384 	   14.1005 	   23.0000 	    9.0000 	   19.9771
    0.7706 	   14.1570 	   23.0000 	    9.0000 	   20.0901
    0.6790 	   14.2105 	   23.0000 	    9.0000 	   20.1971
    0.8469 	   14.2645 	   23.0000 	    9.0000 	   20.3051
    0.7401 	   14.3210 	   23.0000 	    9.0000 	   20.4181
    0.8164 	   14.3755 	   23.0000 	    9.0000 	   20.5271
    0.9079 	   14.4285 	   23.0000 	    9.0000 	   20.6331
    0.9232 	   14.4815 	   23.0000 	    9.0000 	   20.7391
    0.7858 	   14.5345 	   23.0000 	    9.0000 	   20.8451
    0.9232 	   14.5920 	   23.0000 	    9.0000 	   20.9601
    0.7095 	   14.6460 	   23.0000 	    9.0000 	   21.0681
    0.9232 	   14.6995 	   23.0000 	    9.0000 	   21.1751
    0.6485 	   14.7560 	   23.0000 	    9.0000 	   21.2881
    0.8621 	   14.8120 	   23.0000 	    9.0000 	   21.4002
    0.8469 	   14.8665 	   23.0000 	    9.0000 	   21.5092
    0.8621 	   14.9205 	   23.0000 	    9.0000 	   21.6172
    0.8469 	   14.9790 	   23.0000 	    9.0000 	   21.7342
    0.8469 	   15.0345 	   23.0000 	    9.0000 	   21.8452
    0.8011 	   15.0900 	   23.0000 	    9.0000 	   21.9562
    0.7553 	   15.1430 	   23.0000 	    9.0000 	   22.0622
    0.7401 	   15.1965 	   23.0000 	    9.0000 	   22.1692
    0.7553 	   15.2540 	   23.0000 	    9.0000 	   22.2842
    0.7858 	   15.3085 	   23.0000 	    9.0000 	   22.3932
    0.8469 	   15.3620 	   23.0000 	    9.0000 	   22.5002
    0.7858 	   15.4170 	   23.0000 	    9.0000 	   22.6102
    0.8774 	   15.4705 	   23.0000 	    9.0000 	   22.7172
    0.8316 	   15.5255 	   23.0000 	    9.0000 	   22.8272
    0.7553 	   15.5825 	   23.0000 	    9.0000 	   22.9412
    0.6943 	   15.6390 	   23.0000 	    9.0000 	   23.0542
    0.6027 	   15.6940 	   23.0000 	    9.0000 	   23.1643
    0.9537 	   15.7495 	   23.0000 	    9.0000 	   23.2753
    0.7706 	   15.8025 	   23.0000 	    9.0000 	   23.3813
    0.7858 	   15.8575 	   23.0000 	    9.0000 	   23.4913
    0.7706 	   15.9130 	   23.0000 	    9.0000 	   23.6023
    1.0300 	   15.9675 	   23.0000 	    9.0000 	   23.7113
    0.6790 	   16.0205 	   23.0000 	    9.0000 	   23.8173
    0.8316 	   16.0750 	   23.0000 	    9.0000 	   23.9263
    0.6332 	   16.1290 	   23.0000 	    9.0000 	   24.0343
    0.8164 	   16.1835 	   23.0000 	    9.0000 	   24.1433
    0.5722 	   16.2365 	   23.0000 	    9.0000 	   24.2493
    0.9384 	   16.2910 	   23.0000 	    9.0000 	   24.3583
    0.7095 	   16.3470 	   23.0000 	    9.0000 	   24.4703
    0.8469 	   16.4015 	   23.0000 	    9.0000 	   24.5793
    0.8469 	   16.4560 	   23.0000 	    9.0000 	   24.6883
    0.8164 	   16.5105 	   23.0000 	    9.0000 	   24.7973
    0.6638 	   16.5635 	   23.0000 	    9.0000 	   24.9034
    0.7706 	   16.6190 	   23.0000 	    9.0000 	   25.0144
    0.8164 	   16.6730 	   23.0000 	    9.0000 	   25.1224
    0.8164 	   16.7270 	   23.0000 	    9.0000 	   25.2304
    0.8774 	   16.7830 	   23.0000 	    9.0000 	   25.3424
    0.9537 	   16.8390 	   23.0000 	    9.0000 	   25.4544
    0.9537 	   16.8945 	   23.0000 	    9.0000 	   25.5654
    0.8316 	   16.9495 	   23.0000 	    9.0000 	   25.6754
    0.8316 	   17.0045 	   23.0000 	    9.0000 	   25.7854
    0.8316 	   17.0615 	   23.0000 	    9.0000 	   25.8994
    0.8621 	   17.1115 	   23.0000 	    9.0000 	   25.9994
    0.5875 	   17.1610 	   23.0000 	    9.0000 	   26.0984
    0.8469 	   17.2095 	   23.0000 	    9.0000 	   26.1954
    0.9384 	   17.2580 	   23.0000 	    9.0000 	   26.2924
    0.8164 	   17.3095 	   23.0000 	    9.0000 	   26.3954
    0.8621 	   17.3640 	   23.0000 	    9.0000 	   26.5044
    0.9537 	   17.4125 	   23.0000 	    9.0000 	   26.6015
    0.6943 	   17.4630 	   23.0000 	    9.0000 	   26.7025
    0.8927 	   17.5170 	   23.0000 	    9.0000 	   26.8105
    0.7706 	   17.5665 	   23.0000 	    9.0000 	   26.9095
    0.8469 	   17.6160 	   23.0000 	    9.0000 	   27.0085
    0.9842 	   17.6720 	   23.0000 	    9.0000 	   27.1205
    0.9232 	   17.7275 	   23.0000 	    9.0000 	   27.2315
    0.8621 	   17.7835 	   23.0000 	    9.0000 	   27.3435
    0.8164 	   17.8405 	   23.0000 	    9.0000 	   27.4575
    0.8316 	   17.8955 	   23.0000 	    9.0000 	   27.5675
    0.8011 	   17.9585 	   23.0000 	    9.0000 	   27.6935
    1.0758 	   18.0150 	   23.0000 	    9.0000 	   27.8065
    0.9232 	   18.0715 	   23.0000 	    9.0000 	   27.9195
    0.8164 	   18.1275 	   23.0000 	    9.0000 	   28.0315
    0.7095 	   18.1820 	   23.0000 	    9.0000 	   28.1405
    0.9079 	   18.2375 	   23.0000 	    9.0000 	   28.2515
    0.9537 	   18.2935 	   23.0000 	    9.0000 	   28.3636
    0.9079 	   18.3490 	   23.0000 	    9.0000 	   28.4746
    0.7553 	   18.4050 	   23.0000 	    9.0000 	   28.5866
    0.7858 	   18.4600 	   23.0000 	    9.0000 	   28.6966
    0.8316 	   18.5165 	   23.0000 	    9.0000 	   28.8096
    0.8621 	   18.5750 	   23.0000 	    9.0000 	   28.9266
    0.8774 	   18.6325 	   23.0000 	    9.0000 	   29.0416
    0.9079 	   18.6900 	   23.0000 	    9.0000 	   29.1566
    0.8621 	   18.7460 	   23.0000 	    9.0000 	   29.2686
    0.9384 	   18.8025 	   23.0000 	    9.0000 	   29.3816
    0.9842 	   18.8600 	   23.0000 	    9.0000 	   29.4966
    0.8164 	   18.9155 	   23.0000 	    9.0000 	   29.6076
    0.8011 	   18.9780 	   23.0000 	    9.0000 	   29.7326
    0.8621 	   19.0350 	   23.0000 	    9.0000 	   29.8466
    0.8927 	   19.0910 	   23.0000 	    9.0000 	   29.9586
    0.9384 	   19.1480 	   23.0000 	    9.0000 	   30.0726
    0.7858 	   19.2045 	   23.0000 	    9.0000 	   30.1857
    0.8927 	   19.2615 	   23.0000 	    9.0000 	   30.2997
    0.8469 	   19.3175 	   23.0000 	    9.0000 	   30.4117
    0.9384 	   19.3750 	   23.0000 	    9.0000 	   30.5267
    0.8774 	   19.4300 	   23.0000 	    9.0000 	   30.6367
    0.8927 	   19.4860 	   23.0000 	    9.0000 	   30.7487
    0.6638 	   19.5450 	   23.0000 	    9.0000 	   30.8667
    0.9689 	   19.6020 	   23.0000 	    9.0000 	   30.9807
    0.8621 	   19.6575 	   23.0000 	    9.0000 	   31.0917
    0.8927 	   19.7125 	   23.0000 	    9.0000 	   31.2017
    0.9995 	   19.7675 	   23.0000 	    9.0000 	   31.3117
    0.8469 	   19.8235 	   23.0000 	    9.0000 	   31.4237
    0.8774 	   19.8795 	   23.0000 	    9.0000 	   31.5357
    0.8927 	   19.9410 	   23.0000 	    9.0000 	   31.6587
    0.8316 	   19.9990 	   23.0000 	    9.0000 	   31.7747
    0.8316 	   20.0580 	   23.0000 	    9.0000 	   31.8928
    1.0147 	   20.1135 	   23.0000 	    9.0000 	   32.0038
    0.7858 	   20.1700 	   23.0000 	    9.0000 	   32.1168
    0.9384 	   20.2260 	   23.0000 	    9.0000 	   32.2288
    0.8469 	   20.2820 	   23.0000 	    9.0000 	   32.3408
    0.9384 	   20.3385 	   23.0000 	    9.0000 	   32.4538
    0.9384 	   20.3955 	   23.0000 	    9.0000 	   32.5678
    1.0452 	   20.4535 	   23.0000 	    9.0000 	   32.6838
    0.9995 	   20.5105 	   23.0000 	    9.0000 	   32.7978
    0.8621 	   20.5700 	   23.0000 	    9.0000 	   32.9168
    0.9842 	   20.6265 	   23.0000 	    9.0000 	   33.0298
    0.8011 	   20.6845 	   23.0000 	    9.0000 	   33.1458
    0.8011 	   20.7420 	   23.0000 	    9.0000 	   33.2598
    1.0300 	   20.7990 	   23.0000 	    9.0000 	   33.3748
    0.8316 	   20.8530 	   23.0000 	    9.0000 	   33.4818
    0.9232 	   20.9100 	   23.0000 	    9.0000 	   33.5969
    0.9537 	   20.9680 	   23.0000 	    9.0000 	   33.7129
    0.9995 	   21.0260 	   23.0000 	    9.0000 	   33.8289
    0.9232 	   21.0865 	   23.0000 	    9.0000 	   33.9499
    0.7553 	   21.1430 	   23.0000 	    9.0000 	   34.0629
    1.1521 	   21.1995 	   23.0000 	    9.0000 	   34.1759
    0.9079 	   21.2580 	   23.0000 	    9.0000 	   34.2929
    0.9384 	   21.3150 	   23.0000 	    9.0000 	   34.4069
    0.9537 	   21.3725 	   23.0000 	    9.0000 	   34.5219
    0.9842 	   21.4305 	   23.0000 	    9.0000 	   34.6379
    0.9232 	   21.4875 	   23.0000 	    9.0000 	   34.7519
    1.0147 	   21.5475 	   23.0000 	    9.0000 	   34.8719
    0.8316 	   21.6055 	   23.0000 	    9.0000 	   34.9879
    0.9689 	   21.6605 	   23.0000 	    9.0000 	   35.0979
    0.8469 	   21.7160 	   23.0000 	    9.0000 	   35.2089
    0.8927 	   21.7675 	   23.0000 	    9.0000 	   35.3120
    1.0147 	   21.8225 	   23.0000 	    9.0000 	   35.4220
    0.9537 	   21.8785 	   23.0000 	    9.0000 	   35.5340
    0.9537 	   21.9305 	   23.0000 	    9.0000 	   35.6380
    0.8621 	   21.9820 	   23.0000 	    9.0000 	   35.7410
    0.9232 	   22.0405 	   23.0000 	    9.0000 	   35.8580
    0.7401 	   22.0975 	   23.0000 	    9.0000 	   35.9720
    0.8621 	   22.1535 	   23.0000 	    9.0000 	   36.0840
    0.9842 	   22.2095 	   23.0000 	    9.0000 	   36.1960
    0.9537 	   22.2670 	   23.0000 	    9.0000 	   36.3110
    0.9079 	   22.3260 	   23.0000 	    9.0000 	   36.4290
    0.9384 	   22.3845 	   23.0000 	    9.0000 	   36.5460
    0.9079 	   22.4410 	   23.0000 	    9.0000 	   36.6590
    0.8774 	   22.4995 	   23.0000 	    9.0000 	   36.7760
    0.8164 	   22.5530 	   23.0000 	    9.0000 	   36.8830
    1.1368 	   22.6055 	   23.0000 	    9.0000 	   36.9880
    0.9537 	   22.6580 	   23.0000 	    9.0000 	   37.0931
    0.9232 	   22.7105 	   23.0000 	    9.0000 	   37.1981
    0.5875 	   22.7630 	   23.0000 	    9.0000 	   37.3031
    0.9232 	   22.8150 	   23.0000 	    9.0000 	   37.4071
    0.9689 	   22.8730 	   23.0000 	    9.0000 	   37.5221
    0.8927 	   22.9315 	   23.0000 	    9.0000 	   37.6391
    0.8621 	   22.9890 	   23.0000 	    9.0000 	   37.7541
    1.0452 	   23.0490 	   23.0000 	    9.0000 	   37.8741
    1.0605 	   23.1025 	   23.0000 	    9.0000 	   37.9811
    0.8621 	   23.1545 	   23.0000 	    9.0000 	   38.0851
    0.9842 	   23.2065 	   23.0000 	    9.0000 	   38.1891
    0.9384 	   23.2595 	   23.0000 	    9.0000 	   38.2951
    1.0452 	   23.3120 	   23.0000 	    9.0000 	   38.4001
    0.9689 	   23.3665 	   23.0000 	    9.0000 	   38.5091
    0.9537 	   23.4260 	   23.0000 	    9.0000 	   38.6281
    0.9537 	   23.4855 	   23.0000 	    9.0000 	   38.7471
    0.9842 	   23.5440 	   23.0000 	    9.0000 	   38.8642
    0.9842 	   23.5965 	   23.0000 	    9.0000 	   38.9692
    1.0147 	   23.6495 	   23.0000 	    9.0000 	   39.0752
    0.9537 	   23.7060 	   23.0000 	    9.0000 	   39.1882
    0.9232 	   23.7630 	   23.0000 	    9.0000 	   39.3022
    0.7401 	   23.8160 	   23.0000 	    9.0000 	   39.4082
    0.9842 	   23.8690 	   23.0000 	    9.0000 	   39.5142
    0.8469 	   23.9220 	   23.0000 	    9.0000 	   39.6202
    0.8469 	   23.9765 	   23.0000 	    9.0000 	   39.7292
    0.9537 	   24.0295 	   23.0000 	    9.0000 	   39.8352
    0.9079 	   24.0845 	   23.0000 	    9.0000 	   39.9452
    0.9689 	   24.1445 	   23.0000 	    9.0000 	   40.0652
    0.6790 	   24.2000 	   23.0000 	    9.0000 	   40.1762
    0.9079 	   24.2550 	   23.0000 	    9.0000 	   40.2862
    0.9537 	   24.3180 	   23.0000 	    9.0000 	   40.4122
    0.9689 	   24.3715 	   23.0000 	    9.0000 	   40.5192
    0.8927 	   24.4265 	   23.0000 	    9.0000 	   40.6293
    0.9689 	   24.4805 	   23.0000 	    9.0000 	   40.7373
    0.9537 	   24.5360 	   23.0000 	    9.0000 	   40.8483
    0.9537 	   24.5950 	   23.0000 	    9.0000 	   40.9663
    0.9842 	   24.6530 	   23.0000 	    9.0000 	   41.0823
    0.9689 	   24.7075 	   23.0000 	    9.0000 	   41.1913
    0.9232 	   24.7610 	   23.0000 	    9.0000 	   41.2983
    0.8774 	   24.8210 	   23.0000 	    9.0000 	   41.4183
    1.0300 	   24.8780 	   23.0000 	    9.0000 	   41.5323
    1.0452 	   24.9310 	   23.0000 	    9.0000 	   41.6383
    1.0300 	   24.9870 	   23.0000 	    9.0000 	   41.7503
    0.8164 	   25.0470 	   23.0000 	    9.0000 	   41.8693
    1.1826 	   25.1025 	   23.0000 	    9.0000 	   41.9813
    1.0147 	   25.1575 	   23.0000 	    9.0000 	   42.0913
    0.8927 	   25.2130 	   23.0000 	    9.0000 	   42.2023
    1.0910 	   25.2680 	   23.0000 	    9.0000 	   42.3123
    1.0147 	   25.3240 	   23.0000 	    9.0000 	   42.4244
    1.1215 	   25.3795 	   23.0000 	    9.0000 	   42.5354
    1.0147 	   25.4325 	   23.0000 	    9.0000 	   42.6414
    1.0758 	   25.4885 	   23.0000 	    9.0000 	   42.7534
    0.8621 	   25.5480 	   23.0000 	    9.0000 	   42.8724
    0.9995 	   25.6085 	   23.0000 	    9.0000 	   42.9924
    1.0147 	   25.6690 	   23.0000 	    9.0000 	   43.1144
    0.8469 	   25.7305 	   23.0000 	    9.0000 	   43.2374
    1.0452 	   25.7915 	   23.0000 	    9.0000 	   43.3594
    1.2589 	   25.8510 	   23.0000 	    9.0000 	   43.4784
    0.7401 	   25.9075 	   23.0000 	    9.0000 	   43.5914
    1.0452 	   25.9640 	   23.0000 	    9.0000 	   43.7044
    0.9384 	   26.0160 	   23.0000 	    9.0000 	   43.8084
    0.9384 	   26.0710 	   23.0000 	    9.0000 	   43.9184
    0.9384 	   26.1320 	   23.0000 	    9.0000 	   44.0404
    1.0147 	   26.1910 	   23.0000 	    9.0000 	   44.1585
    1.0452 	   26.2490 	   23.0000 	    9.0000 	   44.2745
    1.0300 	   26.3050 	   23.0000 	    9.0000 	   44.3865
    1.1521 	   26.3595 	   23.0000 	    9.0000 	   44.4955
    0.9842 	   26.4150 	   23.0000 	    9.0000 	   44.6065
    0.6943 	   26.4705 	   23.0000 	    9.0000 	   44.7175
    0.9995 	   26.5215 	   23.0000 	    9.0000 	   44.8195
    1.0147 	   26.5770 	   23.0000 	    9.0000 	   44.9305
    1.1673 	   26.6345 	   23.0000 	    9.0000 	   45.0455
    1.0452 	   26.6950 	   23.0000 	    9.0000 	   45.1665
    0.9079 	   26.7540 	   23.0000 	    9.0000 	   45.2845
    1.0910 	   26.8140 	   23.0000 	    9.0000 	   45.4045
    1.0147 	   26.8825 	   23.0000 	    9.0000 	   45.5415
    1.1063 	   26.9540 	   23.0000 	    9.0000 	   45.6845
    0.7706 	   27.0070 	   23.0000 	    9.0000 	   45.7906
    0.9689 	   27.0635 	   23.0000 	    9.0000 	   45.9036
    1.1521 	   27.1250 	   23.0000 	    9.0000 	   46.0266
    1.0910 	   27.1855 	   23.0000 	    9.0000 	   46.1476
    1.0605 	   27.2435 	   23.0000 	    9.0000 	   46.2636
    1.0300 	   27.2975 	   23.0000 	    9.0000 	   46.3716
    1.0147 	   27.3540 	   23.0000 	    9.0000 	   46.4846
    1.0605 	   27.4085 	   23.0000 	    9.0000 	   46.5936
    1.1215 	   27.4635 	   23.0000 	    9.0000 	   46.7036
    1.0605 	   27.5170 	   23.0000 	    9.0000 	   46.8106
    1.0605 	   27.5740 	   23.0000 	    9.0000 	   46.9246
    1.1063 	   27.6355 	   23.0000 	    9.0000 	   47.0476
    1.2131 	   27.6960 	   23.0000 	    9.0000 	   47.1686
    1.0605 	   27.7560 	   23.0000 	    9.0000 	   47.2886
    1.0605 	   27.8160 	   23.0000 	    9.0000 	   47.4086
    1.2284 	   27.8765 	   23.0000 	    9.0000 	   47.5296
    0.9995 	   27.9360 	   23.0000 	    9.0000 	   47.6487
    1.1215 	   27.9920 	   23.0000 	    9.0000 	   47.7607
    1.1368 	   28.0455 	   23.0000 	    9.0000 	   47.8677
    1.1063 	   28.1025 	   23.0000 	    9.0000 	   47.9817
    1.0300 	   28.1615 	   23.0000 	    9.0000 	   48.0997
    1.0605 	   28.2220 	   23.0000 	    9.0000 	   48.2207
    1.2131 	   28.2815 	   23.0000 	    9.0000 	   48.3397
    1.0300 	   28.3455 	   23.0000 	    9.0000 	   48.4677
    1.1063 	   28.4065 	   23.0000 	    9.0000 	   48.5897
    1.2284 	   28.4630 	   23.0000 	    9.0000 	   48.7027
    1.0300 	   28.5165 	   23.0000 	    9.0000 	   48.8097
    1.1215 	   28.5765 	   23.0000 	    9.0000 	   48.9297
    1.1215 	   28.6375 	   23.0000 	    9.0000 	   49.0517
    0.9995 	   28.6985 	   23.0000 	    9.0000 	   49.1737
    1.0605 	   28.7595 	   23.0000 	    9.0000 	   49.2957
    1.0758 	   28.8180 	   23.0000 	    9.0000 	   49.4128
    0.9384 	   28.8755 	   23.0000 	    9.0000 	   49.5278
    0.9995 	   28.9360 	   23.0000 	    9.0000 	   49.6488
    1.0452 	   28.9970 	   23.0000 	    9.0000 	   49.7708
    1.1368 	   29.0545 	   23.0000 	    9.0000 	   49.8858
    1.1215 	   29.1105 	   23.0000 	    9.0000 	   49.9978
    1.1521 	   29.1670 	   23.0000 	    9.0000 	   50.1108
    0.9384 	   29.2225 	   23.0000 	    9.0000 	   50.2218
    1.2131 	   29.2830 	   23.0000 	    9.0000 	   50.3428
    1.2589 	   29.3370 	   23.0000 	    9.0000 	   50.4508
    1.1063 	   29.4000 	   23.0000 	    9.0000 	   50.5768
    1.0605 	   29.4590 	   23.0000 	    9.0000 	   50.6948
    1.1978 	   29.5165 	   23.0000 	    9.0000 	   50.8098
    1.2131 	   29.5760 	   23.0000 	    9.0000 	   50.9288
    1.1826 	   29.6385 	   23.0000 	    9.0000 	   51.0538
    1.0758 	   29.6990 	   23.0000 	    9.0000 	   51.1749
    1.1368 	   29.7590 	   23.0000 	    9.0000 	   51.2949
    1.1978 	   29.8205 	   23.0000 	    9.0000 	   51.4179
    1.1826 	   29.8820 	   23.0000 	    9.0000 	   51.5409
    1.1368 	   29.9425 	   23.0000 	    9.0000 	   51.6619
    0.8011 	   30.0020 	   23.0000 	    9.0000 	   51.7809
    1.1673 	   30.0630 	   23.0000 	    9.0000 	   51.9029
    1.1673 	   30.1250 	   23.0000 	    9.0000 	   52.0269
    1.1978 	   30.1850 	   23.0000 	    9.0000 	   52.1459
    1.1978 	   30.2395 	   23.0000 	    9.0000 	   52.2559
    1.1978 	   30.2945 	   23.0000 	    9.0000 	   52.3659
    1.1215 	   30.3510 	   23.0000 	    9.0000 	   52.4789
    1.2284 	   30.4080 	   23.0000 	    9.0000 	   52.5929
    1.1673 	   30.4685 	   23.0000 	    9.0000 	   52.7139
    1.1673 	   30.5310 	   23.0000 	    9.0000 	   52.8390
    1.3199 	   30.5915 	   23.0000 	    9.0000 	   52.9600
    1.1521 	   30.6530 	   23.0000 	    9.0000 	   53.0830
    1.0452 	   30.7215 	   23.0000 	    9.0000 	   53.2200
    1.2589 	   30.7760 	   23.0000 	    9.0000 	   53.3290
    1.2589 	   30.8315 	   23.0000 	    9.0000 	   53.4400
    1.1521 	   30.8855 	   23.0000 	    9.0000 	   53.5480
    1.0605 	   30.9415 	   23.0000 	    9.0000 	   53.6600
    1.2284 	   30.9965 	   23.0000 	    9.0000 	   53.7700
    1.1521 	   31.0600 	   23.0000 	    9.0000 	   53.8970
    1.1521 	   31.1210 	   23.0000 	    9.0000 	   54.0190
    1.1521 	   31.1825 	   23.0000 	    9.0000 	   54.1420
    1.2284 	   31.2430 	   23.0000 	    9.0000 	   54.2630
    1.1215 	   31.3035 	   23.0000 	    9.0000 	   54.3840
    1.3504 	   31.3645 	   23.0000 	    9.0000 	   54.5060
    1.2589 	   31.4265 	   23.0000 	    9.0000 	   54.6301
    1.1826 	   31.4885 	   23.0000 	    9.0000 	   54.7541
    1.2894 	   31.5510 	   23.0000 	    9.0000 	   54.8791
    1.2436 	   31.6115 	   23.0000 	    9.0000 	   54.9991
    1.0452 	   31.6720 	   23.0000 	    9.0000 	   55.1201
    1.1063 	   31.7340 	   23.0000 	    9.0000 	   55.2441
    1.1826 	   31.7955 	   23.0000 	    9.0000 	   55.3671
    0.9079 	   31.8585 	   23.0000 	    9.0000 	   55.4931
    1.1826 	   31.9200 	   23.0000 	    9.0000 	   55.6161
    1.1978 	   31.9810 	   23.0000 	    9.0000 	   55.7381
    1.2284 	   32.0445 	   23.0000 	    9.0000 	   55.8651
    1.3809 	   32.1065 	   23.0000 	    9.0000 	   55.9891
    1.1521 	   32.1680 	   23.0000 	    9.0000 	   56.1121
    1.2589 	   32.2290 	   23.0000 	    9.0000 	   56.2341
    1.1063 	   32.2910 	   23.0000 	    9.0000 	   56.3582
    1.3199 	   32.3515 	   23.0000 	    9.0000 	   56.4792
    1.1063 	   32.4115 	   23.0000 	    9.0000 	   56.5992
    1.1978 	   32.4675 	   23.0000 	    9.0000 	   56.7112
    1.2284 	   32.5235 	   23.0000 	    9.0000 	   56.8232
    1.2131 	   32.5840 	   23.0000 	    9.0000 	   56.9442
    1.2436 	   32.6455 	   23.0000 	    9.0000 	   57.0672
    1.1978 	   32.7075 	   23.0000 	    9.0000 	   57.1912
    1.0910 	   32.7695 	   23.0000 	    9.0000 	   57.3152
    1.0300 	   32.8320 	   23.0000 	    9.0000 	   57.4402
    1.0758 	   32.8955 	   23.0000 	    9.0000 	   57.5672
    1.3352 	   32.9565 	   23.0000 	    9.0000 	   57.6892
    1.1673 	   33.0165 	   23.0000 	    9.0000 	   57.8092
    1.3199 	   33.0820 	   23.0000 	    9.0000 	   57.9402
    1.1978 	   33.1460 	   23.0000 	    9.0000 	   58.0683
    1.3046 	   33.2100 	   23.0000 	    9.0000 	   58.1963
    1.2894 	   33.2730 	   23.0000 	    9.0000 	   58.3223
    1.2131 	   33.3365 	   23.0000 	    9.0000 	   58.4493
    1.3046 	   33.3990 	   23.0000 	    9.0000 	   58.5743
    1.2284 	   33.4615 	   23.0000 	    9.0000 	   58.6993
    1.1978 	   33.5250 	   23.0000 	    9.0000 	   58.8263
    1.2589 	   33.5885 	   23.0000 	    9.0000 	   58.9533
    1.2284 	   33.6490 	   23.0000 	    9.0000 	   59.0743
    1.2284 	   33.7115 	   23.0000 	    9.0000 	   59.1993
    1.0910 	   33.7750 	   23.0000 	    9.0000 	   59.3263
    1.3046 	   33.8385 	   23.0000 	    9.0000 	   59.4533
    1.2284 	   33.9010 	   23.0000 	    9.0000 	   59.5783
    1.2894 	   33.9630 	   23.0000 	    9.0000 	   59.7023
    1.2894 	   34.0250 	   23.0000 	    9.0000 	   59.8264
    1.1521 	   34.0875 	   23.0000 	    9.0000 	   59.9514
    1.0758 	   34.1505 	   23.0000 	   10.0000 	    0.0774
    1.3046 	   34.2130 	   23.0000 	   10.0000 	    0.2024
    0.9689 	   34.2755 	   23.0000 	   10.0000 	    0.3274
    1.3962 	   34.3390 	   23.0000 	   10.0000 	    0.4544
    0.9995 	   34.4020 	   23.0000 	   10.0000 	    0.5804
    1.1521 	   34.4645 	   23.0000 	   10.0000 	    0.7054
    1.2894 	   34.5270 	   23.0000 	   10.0000 	    0.8304
    1.3046 	   34.5900 	   23.0000 	   10.0000 	    0.9564
    1.3657 	   34.6525 	   23.0000 	   10.0000 	    1.0814
    1.3809 	   34.7140 	   23.0000 	   10.0000 	    1.2044
    1.1978 	   34.7755 	   23.0000 	   10.0000 	    1.3274
    1.3046 	   34.8390 	   23.0000 	   10.0000 	    1.4544
    1.2741 	   34.9000 	   23.0000 	   10.0000 	    1.5765
    1.2741 	   34.9635 	   23.0000 	   10.0000 	    1.7025
    1.2741 	   35.0245 	   23.0000 	   10.0000 	    1.8255
    1.2589 	   35.0905 	   23.0000 	   10.0000 	    1.9575
    1.4420 	   35.1540 	   23.0000 	   10.0000 	    2.0845
    1.2284 	   35.2155 	   23.0000 	   10.0000 	    2.2075
    1.3504 	   35.2775 	   23.0000 	   10.0000 	    2.3315
    1.4115 	   35.3345 	   23.0000 	   10.0000 	    2.4455
    1.2589 	   35.3915 	   23.0000 	   10.0000 	    2.5595
    1.3046 	   35.4475 	   23.0000 	   10.0000 	    2.6715
    1.3809 	   35.5060 	   23.0000 	   10.0000 	    2.7885
    1.3504 	   35.5680 	   23.0000 	   10.0000 	    2.9125
    1.2131 	   35.6270 	   23.0000 	   10.0000 	    3.0305
    1.2284 	   35.6840 	   23.0000 	   10.0000 	    3.1445
    1.3962 	   35.7410 	   23.0000 	   10.0000 	    3.2585
    1.2589 	   35.7980 	   23.0000 	   10.0000 	    3.3726
    1.4115 	   35.8560 	   23.0000 	   10.0000 	    3.4886
    1.3352 	   35.9120 	   23.0000 	   10.0000 	    3.6006
    1.3962 	   35.9680 	   23.0000 	   10.0000 	    3.7116
    1.2894 	   36.0240 	   23.0000 	   10.0000 	    3.8246
    1.5183 	   36.0830 	   23.0000 	   10.0000 	    3.9426
    1.2284 	   36.1465 	   23.0000 	   10.0000 	    4.0696
    1.3962 	   36.2070 	   23.0000 	   10.0000 	    4.1906
    1.1826 	   36.2695 	   23.0000 	   10.0000 	    4.3156
    1.0452 	   36.3325 	   23.0000 	   10.0000 	    4.4416
    1.1978 	   36.3965 	   23.0000 	   10.0000 	    4.5696
    1.2284 	   36.4605 	   23.0000 	   10.0000 	    4.6976
    1.2894 	   36.5240 	   23.0000 	   10.0000 	    4.8246
    1.3504 	   36.5865 	   23.0000 	   10.0000 	    4.9496
    1.2436 	   36.6500 	   23.0000 	   10.0000 	    5.0767
    1.3504 	   36.7135 	   23.0000 	   10.0000 	    5.2037
    1.3352 	   36.7745 	   23.0000 	   10.0000 	    5.3257
    1.3352 	   36.8380 	   23.0000 	   10.0000 	    5.4527
    1.2894 	   36.9010 	   23.0000 	   10.0000 	    5.5787
    1.3046 	   36.9625 	   23.0000 	   10.0000 	    5.7007
    1.3657 	   37.0250 	   23.0000 	   10.0000 	    5.8267
    1.4267 	   37.0880 	   23.0000 	   10.0000 	    5.9527
    1.3352 	   37.1500 	   23.0000 	   10.0000 	    6.0767
    1.3046 	   37.2130 	   23.0000 	   10.0000 	    6.2027
    1.4115 	   37.2760 	   23.0000 	   10.0000 	    6.3287
    1.2284 	   37.3380 	   23.0000 	   10.0000 	    6.4527
    1.4115 	   37.4005 	   23.0000 	   10.0000 	    6.5777
    1.3657 	   37.4575 	   23.0000 	   10.0000 	    6.6917
    1.2589 	   37.5150 	   23.0000 	   10.0000 	    6.8068
    1.3504 	   37.5735 	   23.0000 	   10.0000 	    6.9238
    1.4878 	   37.6305 	   23.0000 	   10.0000 	    7.0378
    1.3504 	   37.6930 	   23.0000 	   10.0000 	    7.1628
    1.3809 	   37.7555 	   23.0000 	   10.0000 	    7.2878
    1.3504 	   37.8170 	   23.0000 	   10.0000 	    7.4108
    1.4115 	   37.8765 	   23.0000 	   10.0000 	    7.5298
    1.5640 	   37.9375 	   23.0000 	   10.0000 	    7.6518
    1.4572 	   37.9990 	   23.0000 	   10.0000 	    7.7748
    1.4267 	   38.0575 	   23.0000 	   10.0000 	    7.8918
    1.4878 	   38.1185 	   23.0000 	   10.0000 	    8.0138
    1.4420 	   38.1805 	   23.0000 	   10.0000 	    8.1378
    1.4115 	   38.2445 	   23.0000 	   10.0000 	    8.2658
    1.3962 	   38.3060 	   23.0000 	   10.0000 	    8.3888
    1.1521 	   38.3690 	   23.0000 	   10.0000 	    8.5148
    1.3657 	   38.4310 	   23.0000 	   10.0000 	    8.6389
    1.4115 	   38.4955 	   23.0000 	   10.0000 	    8.7679
    1.4572 	   38.5600 	   23.0000 	   10.0000 	    8.8969
    1.1978 	   38.6250 	   23.0000 	   10.0000 	    9.0269
    1.4420 	   38.6885 	   23.0000 	   10.0000 	    9.1539
    1.4725 	   38.7490 	   23.0000 	   10.0000 	    9.2749
    1.3504 	   38.8070 	   23.0000 	   10.0000 	    9.3909
    1.0758 	   38.8640 	   23.0000 	   10.0000 	    9.5049
    1.4725 	   38.9220 	   23.0000 	   10.0000 	    9.6209
    1.3504 	   38.9850 	   23.0000 	   10.0000 	    9.7469
    1.4420 	   39.0495 	   23.0000 	   10.0000 	    9.8759
    1.5488 	   39.1135 	   23.0000 	   10.0000 	   10.0039
    1.3809 	   39.1775 	   23.0000 	   10.0000 	   10.1319
    1.4725 	   39.2390 	   23.0000 	   10.0000 	   10.2549
    1.4115 	   39.3010 	   23.0000 	   10.0000 	   10.3790
    1.5335 	   39.3645 	   23.0000 	   10.0000 	   10.5060
    1.4115 	   39.4280 	   23.0000 	   10.0000 	   10.6330
    1.6251 	   39.4910 	   23.0000 	   10.0000 	   10.7590
    1.5335 	   39.5550 	   23.0000 	   10.0000 	   10.8870
    1.5030 	   39.6180 	   23.0000 	   10.0000 	   11.0130
    1.2894 	   39.6810 	   23.0000 	   10.0000 	   11.1390
    1.4878 	   39.7435 	   23.0000 	   10.0000 	   11.2640
    1.4572 	   39.8070 	   23.0000 	   10.0000 	   11.3910
    1.4420 	   39.8685 	   23.0000 	   10.0000 	   11.5140
    1.4725 	   39.9325 	   23.0000 	   10.0000 	   11.6420
    1.5030 	   39.9945 	   23.0000 	   10.0000 	   11.7660
    1.4725 	   40.0180 	   23.0000 	   10.0000 	   11.8130