File: instron/independence/hysterisis/bad_l15w3_pre10/b_l15w3_40_60_pre10_nonstop.txt
Thayer School of Engineering        Instron 4442 Mechanical Testing System
7/5/2018 3:48:53 AM

  Force (N)	Extension (mm)	Not Used	Not Used	Not Used	     Hour	    Minute	    Second
    1.0147 	    1.0280 	    3.0000 	   49.0000 	    3.1848
    1.1215 	    1.2170 	    3.0000 	   49.0000 	    3.3738
    1.3046 	    1.3870 	    3.0000 	   49.0000 	    3.5438
    1.2741 	    1.5540 	    3.0000 	   49.0000 	    3.7108
    0.9537 	    1.7320 	    3.0000 	   49.0000 	    3.8888
    1.2894 	    1.9470 	    3.0000 	   49.0000 	    4.1038
    1.0605 	    2.1480 	    3.0000 	   49.0000 	    4.3048
    1.1521 	    2.3330 	    3.0000 	   49.0000 	    4.4898
    1.2284 	    2.4910 	    3.0000 	   49.0000 	    4.6479
    1.0910 	    2.6880 	    3.0000 	   49.0000 	    4.8449
    1.3046 	    2.8690 	    3.0000 	   49.0000 	    5.0259
    1.1978 	    3.0620 	    3.0000 	   49.0000 	    5.2189
    1.1826 	    3.2490 	    3.0000 	   49.0000 	    5.4059
    1.2436 	    3.4140 	    3.0000 	   49.0000 	    5.5709
    1.1673 	    3.5660 	    3.0000 	   49.0000 	    5.7229
    1.2284 	    3.6830 	    3.0000 	   49.0000 	    5.8399
    1.2589 	    3.8410 	    3.0000 	   49.0000 	    5.9979
    1.2741 	    3.9680 	    3.0000 	   49.0000 	    6.1249
    1.4267 	    4.1010 	    3.0000 	   49.0000 	    6.2579
    1.2894 	    4.2590 	    3.0000 	   49.0000 	    6.4160
    1.2741 	    4.3800 	    3.0000 	   49.0000 	    6.5370
    1.1673 	    4.5130 	    3.0000 	   49.0000 	    6.6700
    1.1215 	    4.6380 	    3.0000 	   49.0000 	    6.7950
    1.3657 	    4.7670 	    3.0000 	   49.0000 	    6.9240
    1.3809 	    4.8930 	    3.0000 	   49.0000 	    7.0500
    1.1215 	    5.0200 	    3.0000 	   49.0000 	    7.1770
    1.1063 	    5.1490 	    3.0000 	   49.0000 	    7.3060
    1.4420 	    5.2780 	    3.0000 	   49.0000 	    7.4350
    1.3657 	    5.3960 	    3.0000 	   49.0000 	    7.5530
    1.4115 	    5.5070 	    3.0000 	   49.0000 	    7.6640
    1.3657 	    5.6280 	    3.0000 	   49.0000 	    7.7850
    1.5030 	    5.7530 	    3.0000 	   49.0000 	    7.9100
    1.5946 	    5.9070 	    3.0000 	   49.0000 	    8.0640
    1.5335 	    6.0300 	    3.0000 	   49.0000 	    8.1871
    1.5335 	    6.1500 	    3.0000 	   49.0000 	    8.3071
    1.5488 	    6.2830 	    3.0000 	   49.0000 	    8.4401
    1.5946 	    6.4010 	    3.0000 	   49.0000 	    8.5581
    1.5946 	    6.5090 	    3.0000 	   49.0000 	    8.6661
    1.5335 	    6.6210 	    3.0000 	   49.0000 	    8.7781
    1.5793 	    6.7320 	    3.0000 	   49.0000 	    8.8891
    1.6251 	    6.8440 	    3.0000 	   49.0000 	    9.0011
    1.5640 	    6.9550 	    3.0000 	   49.0000 	    9.1121
    1.7166 	    7.1020 	    3.0000 	   49.0000 	    9.2591
    1.6403 	    7.2200 	    3.0000 	   49.0000 	    9.3771
    1.5488 	    7.3440 	    3.0000 	   49.0000 	    9.5011
    1.7777 	    7.4560 	    3.0000 	   49.0000 	    9.6131
    1.7014 	    7.5640 	    3.0000 	   49.0000 	    9.7211
    1.6556 	    7.6810 	    3.0000 	   49.0000 	    9.8381
    1.6556 	    7.7890 	    3.0000 	   49.0000 	    9.9462
    1.7014 	    7.8990 	    3.0000 	   49.0000 	   10.0562
    1.5946 	    8.0150 	    3.0000 	   49.0000 	   10.1722
    1.6556 	    8.1390 	    3.0000 	   49.0000 	   10.2962
    1.7777 	    8.2540 	    3.0000 	   49.0000 	   10.4112
    1.7319 	    8.3740 	    3.0000 	   49.0000 	   10.5312
    1.8540 	    8.4850 	    3.0000 	   49.0000 	   10.6422
    1.8845 	    8.6100 	    3.0000 	   49.0000 	   10.7672
    1.7472 	    8.7260 	    3.0000 	   49.0000 	   10.8832
    1.7777 	    8.8310 	    3.0000 	   49.0000 	   10.9882
    1.7319 	    8.9420 	    3.0000 	   49.0000 	   11.0992
    1.7166 	    9.0680 	    3.0000 	   49.0000 	   11.2252
    1.7472 	    9.1870 	    3.0000 	   49.0000 	   11.3442
    2.0371 	    9.3020 	    3.0000 	   49.0000 	   11.4592
    1.4725 	    9.4160 	    3.0000 	   49.0000 	   11.5732
    1.7777 	    9.5260 	    3.0000 	   49.0000 	   11.6833
    1.6556 	    9.6480 	    3.0000 	   49.0000 	   11.8053
    1.8082 	    9.7750 	    3.0000 	   49.0000 	   11.9323
    1.9608 	    9.9000 	    3.0000 	   49.0000 	   12.0573
    1.8845 	   10.0270 	    3.0000 	   49.0000 	   12.1843
    1.9455 	   10.1560 	    3.0000 	   49.0000 	   12.3133
    2.0371 	   10.2860 	    3.0000 	   49.0000 	   12.4433
    1.6251 	   10.4060 	    3.0000 	   49.0000 	   12.5633
    1.8845 	   10.5220 	    3.0000 	   49.0000 	   12.6793
    1.9303 	   10.6470 	    3.0000 	   49.0000 	   12.8043
    1.9913 	   10.7730 	    3.0000 	   49.0000 	   12.9303
    2.0371 	   10.9020 	    3.0000 	   49.0000 	   13.0593
    2.1134 	   11.0300 	    3.0000 	   49.0000 	   13.1873
    2.0523 	   11.1560 	    3.0000 	   49.0000 	   13.3133
    1.9455 	   11.2840 	    3.0000 	   49.0000 	   13.4414
    2.0066 	   11.4030 	    3.0000 	   49.0000 	   13.5604
    1.9303 	   11.5150 	    3.0000 	   49.0000 	   13.6724
    2.0218 	   11.6440 	    3.0000 	   49.0000 	   13.8014
    2.0066 	   11.7680 	    3.0000 	   49.0000 	   13.9254
    2.0829 	   11.8870 	    3.0000 	   49.0000 	   14.0444
    2.1592 	   12.0010 	    3.0000 	   49.0000 	   14.1584
    2.0829 	   12.1330 	    3.0000 	   49.0000 	   14.2904
    2.1439 	   12.2550 	    3.0000 	   49.0000 	   14.4124
    2.0981 	   12.4070 	    3.0000 	   49.0000 	   14.5644
    2.1592 	   12.5220 	    3.0000 	   49.0000 	   14.6794
    2.1897 	   12.6510 	    3.0000 	   49.0000 	   14.8084
    2.2354 	   12.7800 	    3.0000 	   49.0000 	   14.9374
    2.2202 	   12.8980 	    3.0000 	   49.0000 	   15.0554
    2.2507 	   13.0080 	    3.0000 	   49.0000 	   15.1655
    2.2965 	   13.1200 	    3.0000 	   49.0000 	   15.2775
    2.2812 	   13.2390 	    3.0000 	   49.0000 	   15.3965
    2.2660 	   13.3640 	    3.0000 	   49.0000 	   15.5215
    2.2660 	   13.4800 	    3.0000 	   49.0000 	   15.6375
    2.2965 	   13.6070 	    3.0000 	   49.0000 	   15.7645
    2.2812 	   13.7330 	    3.0000 	   49.0000 	   15.8905
    2.2202 	   13.8690 	    3.0000 	   49.0000 	   16.0265
    2.3880 	   13.9970 	    3.0000 	   49.0000 	   16.1545
    2.3575 	   14.1360 	    3.0000 	   49.0000 	   16.2935
    2.3270 	   14.2600 	    3.0000 	   49.0000 	   16.4175
    2.3575 	   14.3870 	    3.0000 	   49.0000 	   16.5445
    2.5406 	   14.5070 	    3.0000 	   49.0000 	   16.6645
    2.4186 	   14.6710 	    3.0000 	   49.0000 	   16.8285
    2.4033 	   14.8120 	    3.0000 	   49.0000 	   16.9696
    2.4643 	   14.9400 	    3.0000 	   49.0000 	   17.0976
    2.4796 	   15.0740 	    3.0000 	   49.0000 	   17.2306
    2.5101 	   15.2060 	    3.0000 	   49.0000 	   17.3626
    2.5711 	   15.3390 	    3.0000 	   49.0000 	   17.4956
    2.2354 	   15.4560 	    3.0000 	   49.0000 	   17.6126
    2.5559 	   15.5750 	    3.0000 	   49.0000 	   17.7316
    2.6017 	   15.7000 	    3.0000 	   49.0000 	   17.8566
    2.5101 	   15.8330 	    3.0000 	   49.0000 	   17.9896
    2.5711 	   15.9640 	    3.0000 	   49.0000 	   18.1206
    2.7237 	   16.1200 	    3.0000 	   49.0000 	   18.2766
    2.7543 	   16.2460 	    3.0000 	   49.0000 	   18.4026
    2.5101 	   16.3860 	    3.0000 	   49.0000 	   18.5426
    2.6017 	   16.4990 	    3.0000 	   49.0000 	   18.6557
    2.8611 	   16.6110 	    3.0000 	   49.0000 	   18.7677
    2.7848 	   16.7330 	    3.0000 	   49.0000 	   18.8897
    2.7695 	   16.8670 	    3.0000 	   49.0000 	   19.0237
    2.7695 	   16.9990 	    3.0000 	   49.0000 	   19.1557
    2.7390 	   17.1350 	    3.0000 	   49.0000 	   19.2917
    2.8458 	   17.2590 	    3.0000 	   49.0000 	   19.4157
    2.8458 	   17.3880 	    3.0000 	   49.0000 	   19.5447
    2.8763 	   17.5010 	    3.0000 	   49.0000 	   19.6577
    2.8458 	   17.6270 	    3.0000 	   49.0000 	   19.7837
    2.8458 	   17.7540 	    3.0000 	   49.0000 	   19.9107
    2.9068 	   17.8790 	    3.0000 	   49.0000 	   20.0357
    2.8611 	   18.0010 	    3.0000 	   49.0000 	   20.1577
    2.8763 	   18.1320 	    3.0000 	   49.0000 	   20.2887
    2.7237 	   18.2610 	    3.0000 	   49.0000 	   20.4178
    3.0137 	   18.4060 	    3.0000 	   49.0000 	   20.5628
    2.8763 	   18.5180 	    3.0000 	   49.0000 	   20.6748
    3.0747 	   18.6490 	    3.0000 	   49.0000 	   20.8058
    2.9831 	   18.7750 	    3.0000 	   49.0000 	   20.9318
    2.8000 	   18.9030 	    3.0000 	   49.0000 	   21.0598
    3.1052 	   19.0290 	    3.0000 	   49.0000 	   21.1858
    3.0137 	   19.1640 	    3.0000 	   49.0000 	   21.3208
    3.1357 	   19.2910 	    3.0000 	   49.0000 	   21.4478
    3.1205 	   19.4320 	    3.0000 	   49.0000 	   21.5888
    3.2425 	   19.5470 	    3.0000 	   49.0000 	   21.7038
    3.1662 	   19.6840 	    3.0000 	   49.0000 	   21.8408
    3.1968 	   19.8150 	    3.0000 	   49.0000 	   21.9718
    3.1815 	   19.9470 	    3.0000 	   49.0000 	   22.1038
    3.1815 	   20.1100 	    3.0000 	   49.0000 	   22.2669
    3.2273 	   20.2400 	    3.0000 	   49.0000 	   22.3969
    2.9831 	   20.3650 	    3.0000 	   49.0000 	   22.5219
    3.2578 	   20.4860 	    3.0000 	   49.0000 	   22.6429
    3.1968 	   20.6070 	    3.0000 	   49.0000 	   22.7639
    3.3036 	   20.7390 	    3.0000 	   49.0000 	   22.8959
    3.3188 	   20.8670 	    3.0000 	   49.0000 	   23.0239
    3.3494 	   20.9950 	    3.0000 	   49.0000 	   23.1519
    3.2425 	   21.1260 	    3.0000 	   49.0000 	   23.2829
    3.4562 	   21.2530 	    3.0000 	   49.0000 	   23.4099
    3.3799 	   21.3750 	    3.0000 	   49.0000 	   23.5319
    3.3494 	   21.4940 	    3.0000 	   49.0000 	   23.6509
    3.3646 	   21.6100 	    3.0000 	   49.0000 	   23.7669
    3.1968 	   21.7290 	    3.0000 	   49.0000 	   23.8860
    3.5019 	   21.8430 	    3.0000 	   49.0000 	   24.0000
    3.3494 	   21.9560 	    3.0000 	   49.0000 	   24.1130
    3.4867 	   22.0850 	    3.0000 	   49.0000 	   24.2420
    3.4714 	   22.2120 	    3.0000 	   49.0000 	   24.3690
    3.5172 	   22.3320 	    3.0000 	   49.0000 	   24.4890
    3.5782 	   22.4580 	    3.0000 	   49.0000 	   24.6150
    3.5477 	   22.6090 	    3.0000 	   49.0000 	   24.7660
    3.5630 	   22.7370 	    3.0000 	   49.0000 	   24.8940
    3.6698 	   22.8680 	    3.0000 	   49.0000 	   25.0250
    3.7003 	   23.0000 	    3.0000 	   49.0000 	   25.1570
    3.6545 	   23.1330 	    3.0000 	   49.0000 	   25.2900
    3.7613 	   23.2610 	    3.0000 	   49.0000 	   25.4180
    3.7003 	   23.3840 	    3.0000 	   49.0000 	   25.5410
    3.6851 	   23.5040 	    3.0000 	   49.0000 	   25.6611
    3.7919 	   23.6260 	    3.0000 	   49.0000 	   25.7831
    3.8071 	   23.7540 	    3.0000 	   49.0000 	   25.9111
    3.7766 	   23.8880 	    3.0000 	   49.0000 	   26.0451
    3.7308 	   24.0170 	    3.0000 	   49.0000 	   26.1741
    3.7308 	   24.1520 	    3.0000 	   49.0000 	   26.3091
    3.9445 	   24.2810 	    3.0000 	   49.0000 	   26.4381
    3.9445 	   24.4210 	    3.0000 	   49.0000 	   26.5781
    3.9292 	   24.5350 	    3.0000 	   49.0000 	   26.6921
    4.0055 	   24.6670 	    3.0000 	   49.0000 	   26.8241
    3.9597 	   24.8040 	    3.0000 	   49.0000 	   26.9611
    3.8071 	   24.9350 	    3.0000 	   49.0000 	   27.0921
    4.0208 	   25.0650 	    3.0000 	   49.0000 	   27.2221
    4.0208 	   25.1850 	    3.0000 	   49.0000 	   27.3421
    3.8834 	   25.3030 	    3.0000 	   49.0000 	   27.4602
    4.0513 	   25.4230 	    3.0000 	   49.0000 	   27.5802
    3.8682 	   25.5420 	    3.0000 	   49.0000 	   27.6992
    4.0818 	   25.6820 	    3.0000 	   49.0000 	   27.8392
    3.9292 	   25.8200 	    3.0000 	   49.0000 	   27.9772
    4.0970 	   25.9530 	    3.0000 	   49.0000 	   28.1102
    4.1733 	   26.0870 	    3.0000 	   49.0000 	   28.2442
    4.2954 	   26.2200 	    3.0000 	   49.0000 	   28.3772
    4.1581 	   26.3510 	    3.0000 	   49.0000 	   28.5082
    4.1123 	   26.4730 	    3.0000 	   49.0000 	   28.6302
    4.1276 	   26.5880 	    3.0000 	   49.0000 	   28.7452
    4.4327 	   26.7060 	    3.0000 	   49.0000 	   28.8632
    4.2191 	   26.8250 	    3.0000 	   49.0000 	   28.9822
    4.3412 	   26.9510 	    3.0000 	   49.0000 	   29.1082
    4.0360 	   27.0900 	    3.0000 	   49.0000 	   29.2473
    4.3259 	   27.2200 	    3.0000 	   49.0000 	   29.3773
    4.2649 	   27.3470 	    3.0000 	   49.0000 	   29.5043
    4.2344 	   27.4660 	    3.0000 	   49.0000 	   29.6233
    4.3412 	   27.5890 	    3.0000 	   49.0000 	   29.7463
    4.4022 	   27.7230 	    3.0000 	   49.0000 	   29.8803
    4.3259 	   27.8540 	    3.0000 	   49.0000 	   30.0113
    4.3565 	   27.9840 	    3.0000 	   49.0000 	   30.1413
    4.3259 	   28.1260 	    3.0000 	   49.0000 	   30.2833
    4.4327 	   28.2560 	    3.0000 	   49.0000 	   30.4133
    4.4480 	   28.3820 	    3.0000 	   49.0000 	   30.5393
    4.4785 	   28.5020 	    3.0000 	   49.0000 	   30.6593
    4.4938 	   28.6230 	    3.0000 	   49.0000 	   30.7803
    4.6464 	   28.7520 	    3.0000 	   49.0000 	   30.9094
    4.5090 	   28.8720 	    3.0000 	   49.0000 	   31.0294
    4.5853 	   28.9920 	    3.0000 	   49.0000 	   31.1494
    4.5243 	   29.1220 	    3.0000 	   49.0000 	   31.2794
    4.5396 	   29.2550 	    3.0000 	   49.0000 	   31.4124
    4.4785 	   29.3820 	    3.0000 	   49.0000 	   31.5394
    4.5701 	   29.5020 	    3.0000 	   49.0000 	   31.6594
    4.6921 	   29.6200 	    3.0000 	   49.0000 	   31.7774
    4.6921 	   29.7460 	    3.0000 	   49.0000 	   31.9034
    4.6464 	   29.8690 	    3.0000 	   49.0000 	   32.0264
    4.7379 	   30.0000 	    3.0000 	   49.0000 	   32.1574
    4.7837 	   30.1390 	    3.0000 	   49.0000 	   32.2964
    4.6769 	   30.2700 	    3.0000 	   49.0000 	   32.4274
    4.7379 	   30.3960 	    3.0000 	   49.0000 	   32.5534
    4.7684 	   30.5160 	    3.0000 	   49.0000 	   32.6735
    4.2954 	   30.6390 	    3.0000 	   49.0000 	   32.7965
    4.2802 	   30.7720 	    3.0000 	   49.0000 	   32.9295
    4.2344 	   30.9030 	    3.0000 	   49.0000 	   33.0605
    4.3717 	   31.0370 	    3.0000 	   49.0000 	   33.1945
    4.0208 	   31.1710 	    3.0000 	   49.0000 	   33.3285
    3.8224 	   31.3040 	    3.0000 	   49.0000 	   33.4615
    3.7766 	   31.4310 	    3.0000 	   49.0000 	   33.5885
    3.8529 	   31.5490 	    3.0000 	   49.0000 	   33.7065
    3.6851 	   31.6660 	    3.0000 	   49.0000 	   33.8235
    3.6545 	   31.7870 	    3.0000 	   49.0000 	   33.9445
    3.5325 	   31.9080 	    3.0000 	   49.0000 	   34.0655
    3.2731 	   32.0270 	    3.0000 	   49.0000 	   34.1845
    3.5782 	   32.1540 	    3.0000 	   49.0000 	   34.3115
    3.3799 	   32.2830 	    3.0000 	   49.0000 	   34.4406
    3.4257 	   32.4060 	    3.0000 	   49.0000 	   34.5636
    3.3951 	   32.5270 	    3.0000 	   49.0000 	   34.6846
    3.5172 	   32.6470 	    3.0000 	   49.0000 	   34.8036
    3.3036 	   32.7850 	    3.0000 	   49.0000 	   34.9416
    3.2883 	   32.9240 	    3.0000 	   49.0000 	   35.0806
    3.1205 	   33.0590 	    3.0000 	   49.0000 	   35.2156
    3.1052 	   33.1910 	    3.0000 	   49.0000 	   35.3476
    3.0747 	   33.3260 	    3.0000 	   49.0000 	   35.4826
    2.8611 	   33.4460 	    3.0000 	   49.0000 	   35.6026
    2.9679 	   33.5640 	    3.0000 	   49.0000 	   35.7206
    2.9831 	   33.7000 	    3.0000 	   49.0000 	   35.8566
    2.9374 	   33.8340 	    3.0000 	   49.0000 	   35.9906
    2.8916 	   33.9680 	    3.0000 	   49.0000 	   36.1246
    2.9526 	   34.1070 	    3.0000 	   49.0000 	   36.2637
    2.6932 	   34.2300 	    3.0000 	   49.0000 	   36.3867
    2.9374 	   34.3650 	    3.0000 	   49.0000 	   36.5217
    2.6932 	   34.4930 	    3.0000 	   49.0000 	   36.6497
    2.8611 	   34.6110 	    3.0000 	   49.0000 	   36.7677
    2.6322 	   34.7330 	    3.0000 	   49.0000 	   36.8897
    2.6322 	   34.8560 	    3.0000 	   49.0000 	   37.0127
    2.6474 	   34.9790 	    3.0000 	   49.0000 	   37.1357
    2.7085 	   35.1080 	    3.0000 	   49.0000 	   37.2647
    2.6474 	   35.2300 	    3.0000 	   49.0000 	   37.3867
    2.6169 	   35.3570 	    3.0000 	   49.0000 	   37.5137
    2.6322 	   35.4820 	    3.0000 	   49.0000 	   37.6387
    2.5559 	   35.6000 	    3.0000 	   49.0000 	   37.7567
    2.3728 	   35.7330 	    3.0000 	   49.0000 	   37.8898
    2.5101 	   35.8710 	    3.0000 	   49.0000 	   38.0278
    2.5406 	   36.0060 	    3.0000 	   49.0000 	   38.1628
    2.3880 	   36.1470 	    3.0000 	   49.0000 	   38.3038
    2.4491 	   36.2810 	    3.0000 	   49.0000 	   38.4378
    2.4643 	   36.4050 	    3.0000 	   49.0000 	   38.5618
    2.3880 	   36.5280 	    3.0000 	   49.0000 	   38.6848
    2.2812 	   36.6470 	    3.0000 	   49.0000 	   38.8038
    2.2507 	   36.7740 	    3.0000 	   49.0000 	   38.9308
    2.3117 	   36.8980 	    3.0000 	   49.0000 	   39.0548
    2.1744 	   37.0390 	    3.0000 	   49.0000 	   39.1958
    2.1744 	   37.1780 	    3.0000 	   49.0000 	   39.3348
    2.2049 	   37.3110 	    3.0000 	   49.0000 	   39.4678
    2.3117 	   37.4370 	    3.0000 	   49.0000 	   39.5938
    2.4033 	   37.5610 	    3.0000 	   49.0000 	   39.7179
    2.0676 	   37.6820 	    3.0000 	   49.0000 	   39.8389
    2.2049 	   37.8070 	    3.0000 	   49.0000 	   39.9639
    2.2202 	   37.9310 	    3.0000 	   49.0000 	   40.0879
    1.9913 	   38.0540 	    3.0000 	   49.0000 	   40.2109
    2.0676 	   38.1850 	    3.0000 	   49.0000 	   40.3419
    2.0523 	   38.3200 	    3.0000 	   49.0000 	   40.4769
    2.1897 	   38.4500 	    3.0000 	   49.0000 	   40.6069
    2.1286 	   38.5750 	    3.0000 	   49.0000 	   40.7319
    2.1134 	   38.7020 	    3.0000 	   49.0000 	   40.8589
    2.0371 	   38.8330 	    3.0000 	   49.0000 	   40.9899
    1.8997 	   38.9770 	    3.0000 	   49.0000 	   41.1339
    1.9608 	   39.1200 	    3.0000 	   49.0000 	   41.2769
    1.8387 	   39.2550 	    3.0000 	   49.0000 	   41.4120
    1.9455 	   39.3880 	    3.0000 	   49.0000 	   41.5450
    1.9150 	   39.5140 	    3.0000 	   49.0000 	   41.6710
    1.8082 	   39.6350 	    3.0000 	   49.0000 	   41.7920
    1.8997 	   39.7580 	    3.0000 	   49.0000 	   41.9150
    2.0066 	   39.8940 	    3.0000 	   49.0000 	   42.0510
    1.9608 	   40.0320 	    3.0000 	   49.0000 	   42.1890
    1.8540 	   40.1750 	    3.0000 	   49.0000 	   42.3320
    1.8997 	   40.3160 	    3.0000 	   49.0000 	   42.4730
    1.6251 	   40.4500 	    3.0000 	   49.0000 	   42.6070
    1.8692 	   40.5810 	    3.0000 	   49.0000 	   42.7380
    1.8082 	   40.7120 	    3.0000 	   49.0000 	   42.8680
    1.6861 	   40.8460 	    3.0000 	   49.0000 	   43.0030
    1.7929 	   40.9820 	    3.0000 	   49.0000 	   43.1391
    1.8235 	   41.1290 	    3.0000 	   49.0000 	   43.2861
    1.7472 	   41.2700 	    3.0000 	   49.0000 	   43.4271
    1.6861 	   41.4120 	    3.0000 	   49.0000 	   43.5691
    1.7166 	   41.5410 	    3.0000 	   49.0000 	   43.6981
    1.6556 	   41.6650 	    3.0000 	   49.0000 	   43.8221
    1.6098 	   41.8010 	    3.0000 	   49.0000 	   43.9581
    1.6403 	   41.9410 	    3.0000 	   49.0000 	   44.0981
    1.7624 	   42.0780 	    3.0000 	   49.0000 	   44.2351
    1.6403 	   42.2230 	    3.0000 	   49.0000 	   44.3801
    1.5640 	   42.3640 	    3.0000 	   49.0000 	   44.5211
    1.6709 	   42.4970 	    3.0000 	   49.0000 	   44.6541
    1.7624 	   42.6200 	    3.0000 	   49.0000 	   44.7771
    1.5030 	   42.7590 	    3.0000 	   49.0000 	   44.9162
    1.6709 	   42.9000 	    3.0000 	   49.0000 	   45.0572
    1.6251 	   43.0430 	    3.0000 	   49.0000 	   45.2002
    1.5183 	   43.1840 	    3.0000 	   49.0000 	   45.3412
    1.5946 	   43.3220 	    3.0000 	   49.0000 	   45.4792
    1.5946 	   43.4560 	    3.0000 	   49.0000 	   45.6132
    1.6709 	   43.5840 	    3.0000 	   49.0000 	   45.7412
    1.5488 	   43.7190 	    3.0000 	   49.0000 	   45.8762
    1.5183 	   43.8570 	    3.0000 	   49.0000 	   46.0142
    1.5640 	   44.0000 	    3.0000 	   49.0000 	   46.1572
    1.4267 	   44.1440 	    3.0000 	   49.0000 	   46.3012
    1.3657 	   44.2850 	    3.0000 	   49.0000 	   46.4422
    1.3657 	   44.4230 	    3.0000 	   49.0000 	   46.5802
    1.4420 	   44.5510 	    3.0000 	   49.0000 	   46.7083
    1.3199 	   44.6800 	    3.0000 	   49.0000 	   46.8373
    1.3657 	   44.8210 	    3.0000 	   49.0000 	   46.9783
    1.4267 	   44.9610 	    3.0000 	   49.0000 	   47.1183
    1.4878 	   45.1070 	    3.0000 	   49.0000 	   47.2643
    1.3352 	   45.2530 	    3.0000 	   49.0000 	   47.4103
    1.2741 	   45.3910 	    3.0000 	   49.0000 	   47.5483
    1.3657 	   45.5220 	    3.0000 	   49.0000 	   47.6793
    1.3962 	   45.6480 	    3.0000 	   49.0000 	   47.8053
    1.3657 	   45.7940 	    3.0000 	   49.0000 	   47.9513
    1.3504 	   45.9400 	    3.0000 	   49.0000 	   48.0973
    1.2894 	   46.0900 	    3.0000 	   49.0000 	   48.2473
    1.2894 	   46.2300 	    3.0000 	   49.0000 	   48.3874
    1.3199 	   46.3680 	    3.0000 	   49.0000 	   48.5254
    1.2436 	   46.4980 	    3.0000 	   49.0000 	   48.6554
    1.3199 	   46.6290 	    3.0000 	   49.0000 	   48.7864
    1.2589 	   46.7710 	    3.0000 	   49.0000 	   48.9284
    1.0605 	   46.9130 	    3.0000 	   49.0000 	   49.0704
    1.3657 	   47.0580 	    3.0000 	   49.0000 	   49.2154
    1.2284 	   47.2030 	    3.0000 	   49.0000 	   49.3604
    1.2436 	   47.3470 	    3.0000 	   49.0000 	   49.5044
    1.1978 	   47.4840 	    3.0000 	   49.0000 	   49.6414
    1.1215 	   47.6110 	    3.0000 	   49.0000 	   49.7684
    1.3657 	   47.7510 	    3.0000 	   49.0000 	   49.9084
    1.1978 	   47.9010 	    3.0000 	   49.0000 	   50.0584
    1.1978 	   48.0450 	    3.0000 	   49.0000 	   50.2025
    1.1826 	   48.1910 	    3.0000 	   49.0000 	   50.3485
    1.3199 	   48.3370 	    3.0000 	   49.0000 	   50.4945
    1.1368 	   48.4740 	    3.0000 	   49.0000 	   50.6315
    1.1063 	   48.6020 	    3.0000 	   49.0000 	   50.7595
    1.1215 	   48.7330 	    3.0000 	   49.0000 	   50.8905
    1.2131 	   48.8650 	    3.0000 	   49.0000 	   51.0225
    1.1368 	   48.9980 	    3.0000 	   49.0000 	   51.1555
    1.1673 	   49.1470 	    3.0000 	   49.0000 	   51.3045
    1.2894 	   49.2810 	    3.0000 	   49.0000 	   51.4385
    1.1521 	   49.4160 	    3.0000 	   49.0000 	   51.5735
    1.0300 	   49.5500 	    3.0000 	   49.0000 	   51.7075
    1.1368 	   49.6850 	    3.0000 	   49.0000 	   51.8425
    1.1368 	   49.8270 	    3.0000 	   49.0000 	   51.9846
    0.8316 	   49.9690 	    3.0000 	   49.0000 	   52.1266
    1.2284 	   50.1250 	    3.0000 	   49.0000 	   52.2816
    1.1978 	   50.2710 	    3.0000 	   49.0000 	   52.4276
    1.2894 	   50.4180 	    3.0000 	   49.0000 	   52.5746
    1.1215 	   50.5540 	    3.0000 	   49.0000 	   52.7106
    0.9995 	   50.6810 	    3.0000 	   49.0000 	   52.8376
    1.0605 	   50.8280 	    3.0000 	   49.0000 	   52.9846
    0.9842 	   50.9760 	    3.0000 	   49.0000 	   53.1326
    1.1215 	   51.1260 	    3.0000 	   49.0000 	   53.2826
    1.0910 	   51.2750 	    3.0000 	   49.0000 	   53.4316
    1.2131 	   51.4190 	    3.0000 	   49.0000 	   53.5756
    1.0147 	   51.5550 	    3.0000 	   49.0000 	   53.7117
    1.0452 	   51.6830 	    3.0000 	   49.0000 	   53.8397
    1.2284 	   51.8320 	    3.0000 	   49.0000 	   53.9887
    0.9537 	   51.9770 	    3.0000 	   49.0000 	   54.1337
    1.0300 	   52.1320 	    3.0000 	   49.0000 	   54.2887
    0.9995 	   52.2770 	    3.0000 	   49.0000 	   54.4337
    1.0758 	   52.4210 	    3.0000 	   49.0000 	   54.5777
    1.1368 	   52.5580 	    3.0000 	   49.0000 	   54.7147
    1.0605 	   52.6870 	    3.0000 	   49.0000 	   54.8437
    0.8774 	   52.8320 	    3.0000 	   49.0000 	   54.9887
    0.9842 	   52.9790 	    3.0000 	   49.0000 	   55.1357
    1.0605 	   53.1270 	    3.0000 	   49.0000 	   55.2837
    1.1063 	   53.2740 	    3.0000 	   49.0000 	   55.4308
    0.9232 	   53.4200 	    3.0000 	   49.0000 	   55.5768
    0.9537 	   53.5580 	    3.0000 	   49.0000 	   55.7148
    0.9537 	   53.6870 	    3.0000 	   49.0000 	   55.8438
    0.8469 	   53.8200 	    3.0000 	   49.0000 	   55.9768
    0.8774 	   53.9530 	    3.0000 	   49.0000 	   56.1098
    0.9995 	   54.0880 	    3.0000 	   49.0000 	   56.2448
    0.9689 	   54.2200 	    3.0000 	   49.0000 	   56.3768
    0.8011 	   54.3540 	    3.0000 	   49.0000 	   56.5108
    1.0758 	   54.4920 	    3.0000 	   49.0000 	   56.6488
    0.6485 	   54.6250 	    3.0000 	   49.0000 	   56.7818
    0.9384 	   54.7630 	    3.0000 	   49.0000 	   56.9198
    1.0758 	   54.9070 	    3.0000 	   49.0000 	   57.0638
    0.8011 	   55.0400 	    3.0000 	   49.0000 	   57.1969
    0.9384 	   55.1900 	    3.0000 	   49.0000 	   57.3469
    0.7706 	   55.3310 	    3.0000 	   49.0000 	   57.4879
    0.8774 	   55.4770 	    3.0000 	   49.0000 	   57.6339
    0.8164 	   55.6160 	    3.0000 	   49.0000 	   57.7729
    0.8621 	   55.7450 	    3.0000 	   49.0000 	   57.9019
    0.9079 	   55.8840 	    3.0000 	   49.0000 	   58.0409
    0.8164 	   56.0270 	    3.0000 	   49.0000 	   58.1839
    0.8621 	   56.1690 	    3.0000 	   49.0000 	   58.3259
    0.8011 	   56.3170 	    3.0000 	   49.0000 	   58.4739
    0.8316 	   56.4610 	    3.0000 	   49.0000 	   58.6179
    0.7401 	   56.6010 	    3.0000 	   49.0000 	   58.7579
    0.9384 	   56.7330 	    3.0000 	   49.0000 	   58.8900
    0.6180 	   56.8770 	    3.0000 	   49.0000 	   59.0340
    0.8621 	   57.0230 	    3.0000 	   49.0000 	   59.1800
    0.8164 	   57.1720 	    3.0000 	   49.0000 	   59.3290
    0.7248 	   57.3180 	    3.0000 	   49.0000 	   59.4750
    0.7858 	   57.4620 	    3.0000 	   49.0000 	   59.6190
    0.8469 	   57.6040 	    3.0000 	   49.0000 	   59.7610
    0.7858 	   57.7370 	    3.0000 	   49.0000 	   59.8940
    0.8469 	   57.8790 	    3.0000 	   50.0000 	    0.0360
    0.7553 	   58.0300 	    3.0000 	   50.0000 	    0.1870
    0.8469 	   58.1800 	    3.0000 	   50.0000 	    0.3360
    0.8164 	   58.3330 	    3.0000 	   50.0000 	    0.4890
    0.6943 	   58.4830 	    3.0000 	   50.0000 	    0.6401
    0.8774 	   58.6260 	    3.0000 	   50.0000 	    0.7821
    0.9079 	   58.7760 	    3.0000 	   50.0000 	    0.9331
    0.6943 	   58.9270 	    3.0000 	   50.0000 	    1.0841
    0.7553 	   59.0810 	    3.0000 	   50.0000 	    1.2371
    0.7401 	   59.2280 	    3.0000 	   50.0000 	    1.3851
    0.8011 	   59.3800 	    3.0000 	   50.0000 	    1.5371
    0.8011 	   59.5270 	    3.0000 	   50.0000 	    1.6841
    0.8621 	   59.6700 	    3.0000 	   50.0000 	    1.8271
    0.7095 	   59.8140 	    3.0000 	   50.0000 	    1.9711
    0.7858 	   59.9670 	    3.0000 	   50.0000 	    2.1241
    0.8469 	   60.1200 	    3.0000 	   50.0000 	    2.2771
    0.8774 	   60.2710 	    3.0000 	   50.0000 	    2.4282
    0.8164 	   60.4220 	    3.0000 	   50.0000 	    2.5792
    0.6638 	   60.5710 	    3.0000 	   50.0000 	    2.7282
    0.6790 	   60.7120 	    3.0000 	   50.0000 	    2.8692
    0.8164 	   60.8640 	    3.0000 	   50.0000 	    3.0212
    1.0300 	   61.0190 	    3.0000 	   50.0000 	    3.1762
    0.6485 	   61.1730 	    3.0000 	   50.0000 	    3.3302
    0.6180 	   61.3240 	    3.0000 	   50.0000 	    3.4812
    0.8164 	   61.4770 	    3.0000 	   50.0000 	    3.6342
    0.8469 	   61.6250 	    3.0000 	   50.0000 	    3.7822
    0.7553 	   61.7600 	    3.0000 	   50.0000 	    3.9172
    0.7706 	   61.8980 	    3.0000 	   50.0000 	    4.0552
    0.8469 	   62.0480 	    3.0000 	   50.0000 	    4.2053
    0.9384 	   62.2030 	    3.0000 	   50.0000 	    4.3603
    0.8774 	   62.3550 	    3.0000 	   50.0000 	    4.5123
    0.7706 	   62.5030 	    3.0000 	   50.0000 	    4.6603
    0.8927 	   62.6510 	    3.0000 	   50.0000 	    4.8083
    0.8469 	   62.7920 	    3.0000 	   50.0000 	    4.9493
    0.8774 	   62.9470 	    3.0000 	   50.0000 	    5.1043
    0.9079 	   63.0980 	    3.0000 	   50.0000 	    5.2553
    0.9689 	   63.2530 	    3.0000 	   50.0000 	    5.4103
    0.8621 	   63.4060 	    3.0000 	   50.0000 	    5.5633
    0.9537 	   63.5550 	    3.0000 	   50.0000 	    5.7123
    0.8927 	   63.7000 	    3.0000 	   50.0000 	    5.8574
    0.7706 	   63.8380 	    3.0000 	   50.0000 	    5.9954
    0.8011 	   63.9800 	    3.0000 	   50.0000 	    6.1374
    0.9079 	   64.1350 	    3.0000 	   50.0000 	    6.2924
    0.9995 	   64.2880 	    3.0000 	   50.0000 	    6.4454
    0.7553 	   64.4420 	    3.0000 	   50.0000 	    6.5994
    0.9384 	   64.5910 	    3.0000 	   50.0000 	    6.7484
    1.0758 	   64.7340 	    3.0000 	   50.0000 	    6.8914
    0.9384 	   64.8710 	    3.0000 	   50.0000 	    7.0284
    0.7248 	   65.0140 	    3.0000 	   50.0000 	    7.1714
    0.9842 	   65.1630 	    3.0000 	   50.0000 	    7.3204
    1.1063 	   65.3180 	    3.0000 	   50.0000 	    7.4754
    1.0300 	   65.4750 	    3.0000 	   50.0000 	    7.6325
    1.0605 	   65.6230 	    3.0000 	   50.0000 	    7.7805
    1.1063 	   65.7660 	    3.0000 	   50.0000 	    7.9235
    1.0758 	   65.9150 	    3.0000 	   50.0000 	    8.0725
    1.1978 	   66.0520 	    3.0000 	   50.0000 	    8.2095
    1.1368 	   66.1950 	    3.0000 	   50.0000 	    8.3525
    1.0147 	   66.3400 	    3.0000 	   50.0000 	    8.4975
    1.1063 	   66.4860 	    3.0000 	   50.0000 	    8.6435
    1.1673 	   66.6260 	    3.0000 	   50.0000 	    8.7835
    1.2284 	   66.7660 	    3.0000 	   50.0000 	    8.9235
    1.1826 	   66.9110 	    3.0000 	   50.0000 	    9.0685
    1.0452 	   67.0580 	    3.0000 	   50.0000 	    9.2155
    1.1978 	   67.2100 	    3.0000 	   50.0000 	    9.3676
    1.1521 	   67.3540 	    3.0000 	   50.0000 	    9.5116
    1.2741 	   67.5070 	    3.0000 	   50.0000 	    9.6646
    1.1826 	   67.6520 	    3.0000 	   50.0000 	    9.8086
    1.1978 	   67.7900 	    3.0000 	   50.0000 	    9.9466
    0.9384 	   67.9290 	    3.0000 	   50.0000 	   10.0856
    1.1673 	   68.0780 	    3.0000 	   50.0000 	   10.2346
    1.1978 	   68.2340 	    3.0000 	   50.0000 	   10.3906
    1.3046 	   68.3880 	    3.0000 	   50.0000 	   10.5446
    1.2894 	   68.5360 	    3.0000 	   50.0000 	   10.6926
    1.3809 	   68.6780 	    3.0000 	   50.0000 	   10.8346
    1.0910 	   68.8240 	    3.0000 	   50.0000 	   10.9796
    1.3352 	   68.9780 	    3.0000 	   50.0000 	   11.1347
    1.1978 	   69.1300 	    3.0000 	   50.0000 	   11.2857
    1.3199 	   69.2810 	    3.0000 	   50.0000 	   11.4377
    1.3199 	   69.4350 	    3.0000 	   50.0000 	   11.5917
    1.0758 	   69.5860 	    3.0000 	   50.0000 	   11.7427
    1.3657 	   69.7320 	    3.0000 	   50.0000 	   11.8887
    1.3962 	   69.8880 	    3.0000 	   50.0000 	   12.0447
    1.4267 	   70.0450 	    3.0000 	   50.0000 	   12.2017
    1.4115 	   70.2030 	    3.0000 	   50.0000 	   12.3597
    1.3199 	   70.3600 	    3.0000 	   50.0000 	   12.5167
    1.3962 	   70.5180 	    3.0000 	   50.0000 	   12.6747
    1.4115 	   70.6610 	    3.0000 	   50.0000 	   12.8177
    1.5335 	   70.8010 	    3.0000 	   50.0000 	   12.9578
    1.5030 	   70.9580 	    3.0000 	   50.0000 	   13.1148
    1.3962 	   71.1150 	    3.0000 	   50.0000 	   13.2718
    1.3657 	   71.2690 	    3.0000 	   50.0000 	   13.4258
    1.3962 	   71.4200 	    3.0000 	   50.0000 	   13.5768
    1.4725 	   71.5720 	    3.0000 	   50.0000 	   13.7288
    1.5183 	   71.7180 	    3.0000 	   50.0000 	   13.8748
    1.2436 	   71.8550 	    3.0000 	   50.0000 	   14.0118
    1.2589 	   72.0090 	    3.0000 	   50.0000 	   14.1658
    1.5030 	   72.1710 	    3.0000 	   50.0000 	   14.3278
    1.6709 	   72.3280 	    3.0000 	   50.0000 	   14.4848
    1.6709 	   72.4870 	    3.0000 	   50.0000 	   14.6439
    1.6403 	   72.6330 	    3.0000 	   50.0000 	   14.7899
    1.5946 	   72.7730 	    3.0000 	   50.0000 	   14.9299
    1.6861 	   72.9290 	    3.0000 	   50.0000 	   15.0859
    1.5335 	   73.0870 	    3.0000 	   50.0000 	   15.2439
    1.8082 	   73.2420 	    3.0000 	   50.0000 	   15.3989
    1.6861 	   73.3900 	    3.0000 	   50.0000 	   15.5469
    1.7014 	   73.5340 	    3.0000 	   50.0000 	   15.6909
    1.6403 	   73.6760 	    3.0000 	   50.0000 	   15.8329
    1.8235 	   73.8200 	    3.0000 	   50.0000 	   15.9769
    1.4267 	   73.9680 	    3.0000 	   50.0000 	   16.1249
    1.8387 	   74.1290 	    3.0000 	   50.0000 	   16.2859
    1.7014 	   74.2740 	    3.0000 	   50.0000 	   16.4310
    1.7777 	   74.4150 	    3.0000 	   50.0000 	   16.5720
    1.8997 	   74.5580 	    3.0000 	   50.0000 	   16.7150
    1.9150 	   74.7030 	    3.0000 	   50.0000 	   16.8600
    1.8082 	   74.8460 	    3.0000 	   50.0000 	   17.0030
    1.9150 	   75.0010 	    3.0000 	   50.0000 	   17.1580
    1.8387 	   75.1560 	    3.0000 	   50.0000 	   17.3130
    2.0066 	   75.3130 	    3.0000 	   50.0000 	   17.4700
    1.9150 	   75.4740 	    3.0000 	   50.0000 	   17.6310
    2.0218 	   75.6270 	    3.0000 	   50.0000 	   17.7840
    2.0829 	   75.7720 	    3.0000 	   50.0000 	   17.9290
    2.0371 	   75.9260 	    3.0000 	   50.0000 	   18.0830
    2.0523 	   76.0860 	    3.0000 	   50.0000 	   18.2431
    1.9303 	   76.2310 	    3.0000 	   50.0000 	   18.3881
    1.9760 	   76.3920 	    3.0000 	   50.0000 	   18.5491
    1.8845 	   76.5470 	    3.0000 	   50.0000 	   18.7041
    2.1134 	   76.6970 	    3.0000 	   50.0000 	   18.8541
    2.1897 	   76.8480 	    3.0000 	   50.0000 	   19.0051
    2.1897 	   77.0080 	    3.0000 	   50.0000 	   19.1651
    2.1592 	   77.1660 	    3.0000 	   50.0000 	   19.3231
    1.9608 	   77.3300 	    3.0000 	   50.0000 	   19.4871
    2.2049 	   77.4790 	    3.0000 	   50.0000 	   19.6361
    2.2660 	   77.6280 	    3.0000 	   50.0000 	   19.7851
    1.9150 	   77.7730 	    3.0000 	   50.0000 	   19.9302
    1.9608 	   77.9170 	    3.0000 	   50.0000 	   20.0742
    2.1897 	   78.0710 	    3.0000 	   50.0000 	   20.2282
    2.2660 	   78.2290 	    3.0000 	   50.0000 	   20.3862
    2.1439 	   78.3900 	    3.0000 	   50.0000 	   20.5472
    2.2812 	   78.5460 	    3.0000 	   50.0000 	   20.7032
    2.1592 	   78.6990 	    3.0000 	   50.0000 	   20.8562
    2.1134 	   78.8450 	    3.0000 	   50.0000 	   21.0022
    2.0218 	   78.9980 	    3.0000 	   50.0000 	   21.1552
    2.4033 	   79.1570 	    3.0000 	   50.0000 	   21.3142
    2.4796 	   79.3180 	    3.0000 	   50.0000 	   21.4752
    2.3270 	   79.4780 	    3.0000 	   50.0000 	   21.6353
    2.3728 	   79.6350 	    3.0000 	   50.0000 	   21.7923
    2.4033 	   79.7820 	    3.0000 	   50.0000 	   21.9393
    2.3575 	   79.9350 	    3.0000 	   50.0000 	   22.0923
    2.3880 	   80.0960 	    3.0000 	   50.0000 	   22.2533
    2.3880 	   80.2550 	    3.0000 	   50.0000 	   22.4123
    2.4338 	   80.4140 	    3.0000 	   50.0000 	   22.5713
    2.4796 	   80.5750 	    3.0000 	   50.0000 	   22.7323
    2.6780 	   80.7260 	    3.0000 	   50.0000 	   22.8833
    2.4796 	   80.8680 	    3.0000 	   50.0000 	   23.0253
    2.6169 	   81.0270 	    3.0000 	   50.0000 	   23.1843
    2.5559 	   81.1880 	    3.0000 	   50.0000 	   23.3454
    2.5559 	   81.3480 	    3.0000 	   50.0000 	   23.5054
    2.7085 	   81.5100 	    3.0000 	   50.0000 	   23.6674
    2.6627 	   81.6670 	    3.0000 	   50.0000 	   23.8244
    2.6322 	   81.8140 	    3.0000 	   50.0000 	   23.9714
    2.6322 	   81.9600 	    3.0000 	   50.0000 	   24.1174
    2.2965 	   82.1240 	    3.0000 	   50.0000 	   24.2814
    2.6169 	   82.2850 	    3.0000 	   50.0000 	   24.4424
    2.7848 	   82.4470 	    3.0000 	   50.0000 	   24.6044
    2.9526 	   82.6090 	    3.0000 	   50.0000 	   24.7664
    2.8305 	   82.7600 	    3.0000 	   50.0000 	   24.9174
    2.7543 	   82.9080 	    3.0000 	   50.0000 	   25.0654
    2.7085 	   83.0690 	    3.0000 	   50.0000 	   25.2265
    2.9526 	   83.2340 	    3.0000 	   50.0000 	   25.3915
    2.8305 	   83.3970 	    3.0000 	   50.0000 	   25.5545
    2.8916 	   83.5630 	    3.0000 	   50.0000 	   25.7205
    2.9984 	   83.7140 	    3.0000 	   50.0000 	   25.8715
    3.0289 	   83.8630 	    3.0000 	   50.0000 	   26.0205
    2.9831 	   84.0290 	    3.0000 	   50.0000 	   26.1865
    2.9068 	   84.1840 	    3.0000 	   50.0000 	   26.3415
    2.9984 	   84.3310 	    3.0000 	   50.0000 	   26.4885
    3.0442 	   84.4920 	    3.0000 	   50.0000 	   26.6495
    2.9984 	   84.6470 	    3.0000 	   50.0000 	   26.8046
    3.1357 	   84.7960 	    3.0000 	   50.0000 	   26.9536
    3.0594 	   84.9530 	    3.0000 	   50.0000 	   27.1106
    3.0442 	   85.1150 	    3.0000 	   50.0000 	   27.2716
    3.1357 	   85.2780 	    3.0000 	   50.0000 	   27.4346
    3.2273 	   85.4340 	    3.0000 	   50.0000 	   27.5906
    3.3799 	   85.5820 	    3.0000 	   50.0000 	   27.7386
    3.1662 	   85.7330 	    3.0000 	   50.0000 	   27.8896
    3.1357 	   85.8820 	    3.0000 	   50.0000 	   28.0386
    3.2425 	   86.0450 	    3.0000 	   50.0000 	   28.2016
    3.3646 	   86.2090 	    3.0000 	   50.0000 	   28.3656
    3.4104 	   86.3730 	    3.0000 	   50.0000 	   28.5296
    3.3646 	   86.5220 	    3.0000 	   50.0000 	   28.6787
    3.3341 	   86.6740 	    3.0000 	   50.0000 	   28.8307
    3.3951 	   86.8240 	    3.0000 	   50.0000 	   28.9807
    3.4257 	   86.9810 	    3.0000 	   50.0000 	   29.1377
    3.5630 	   87.1390 	    3.0000 	   50.0000 	   29.2957
    3.5325 	   87.2930 	    3.0000 	   50.0000 	   29.4497
    3.5019 	   87.4550 	    3.0000 	   50.0000 	   29.6117
    3.6698 	   87.6180 	    3.0000 	   50.0000 	   29.7747
    3.6851 	   87.7760 	    3.0000 	   50.0000 	   29.9327
    3.7003 	   87.9230 	    3.0000 	   50.0000 	   30.0797
    3.6088 	   88.0800 	    3.0000 	   50.0000 	   30.2367
    3.5477 	   88.2340 	    3.0000 	   50.0000 	   30.3908
    3.6851 	   88.3960 	    3.0000 	   50.0000 	   30.5528
    3.6088 	   88.5560 	    3.0000 	   50.0000 	   30.7128
    3.7766 	   88.7090 	    3.0000 	   50.0000 	   30.8658
    3.7308 	   88.8600 	    3.0000 	   50.0000 	   31.0168
    3.9292 	   89.0140 	    3.0000 	   50.0000 	   31.1708
    3.9292 	   89.1680 	    3.0000 	   50.0000 	   31.3248
    3.8529 	   89.3190 	    3.0000 	   50.0000 	   31.4758
    3.8529 	   89.4690 	    3.0000 	   50.0000 	   31.6258
    4.0208 	   89.6260 	    3.0000 	   50.0000 	   31.7828
    3.9597 	   89.7800 	    3.0000 	   50.0000 	   31.9368
    3.9902 	   89.9280 	    3.0000 	   50.0000 	   32.0849
    4.0360 	   90.0820 	    3.0000 	   50.0000 	   32.2389
    4.0360 	   90.2300 	    3.0000 	   50.0000 	   32.3869
    4.1123 	   90.3860 	    3.0000 	   50.0000 	   32.5429
    4.0055 	   90.5420 	    3.0000 	   50.0000 	   32.6989
    4.2344 	   90.6980 	    3.0000 	   50.0000 	   32.8549
    4.3259 	   90.8530 	    3.0000 	   50.0000 	   33.0099
    4.2649 	   91.0020 	    3.0000 	   50.0000 	   33.1579
    3.9139 	   91.1630 	    3.0000 	   50.0000 	   33.3199
    4.1581 	   91.3280 	    3.0000 	   50.0000 	   33.4849
    4.1123 	   91.4920 	    3.0000 	   50.0000 	   33.6489
    4.2649 	   91.6600 	    3.0000 	   50.0000 	   33.8170
    4.4175 	   91.8150 	    3.0000 	   50.0000 	   33.9720
    4.4480 	   91.9660 	    3.0000 	   50.0000 	   34.1230
    4.4022 	   92.1330 	    3.0000 	   50.0000 	   34.2900
    4.5853 	   92.3010 	    3.0000 	   50.0000 	   34.4580
    4.6006 	   92.4680 	    3.0000 	   50.0000 	   34.6250
    4.4480 	   92.6340 	    3.0000 	   50.0000 	   34.7910
    4.3259 	   92.7910 	    3.0000 	   50.0000 	   34.9480
    4.1428 	   92.9480 	    3.0000 	   50.0000 	   35.1050
    3.9902 	   93.1120 	    3.0000 	   50.0000 	   35.2690
    3.9139 	   93.2810 	    3.0000 	   50.0000 	   35.4380
    3.8376 	   93.4500 	    3.0000 	   50.0000 	   35.6071
    3.6698 	   93.6170 	    3.0000 	   50.0000 	   35.7741
    3.5935 	   93.7760 	    3.0000 	   50.0000 	   35.9331
    3.4714 	   93.9260 	    3.0000 	   50.0000 	   36.0831
    3.4867 	   94.0960 	    3.0000 	   50.0000 	   36.2531
    3.4409 	   94.2650 	    3.0000 	   50.0000 	   36.4221
    3.2731 	   94.4310 	    3.0000 	   50.0000 	   36.5881
    3.3494 	   94.6000 	    3.0000 	   50.0000 	   36.7571
    3.1662 	   94.7590 	    3.0000 	   50.0000 	   36.9161
    3.0747 	   94.9080 	    3.0000 	   50.0000 	   37.0651
    3.0442 	   95.0570 	    3.0000 	   50.0000 	   37.2141
    2.7848 	   95.2210 	    3.0000 	   50.0000 	   37.3782
    3.0137 	   95.3880 	    3.0000 	   50.0000 	   37.5452
    2.8916 	   95.5400 	    3.0000 	   50.0000 	   37.6972
    2.9526 	   95.6990 	    3.0000 	   50.0000 	   37.8562
    2.7237 	   95.8590 	    3.0000 	   50.0000 	   38.0162
    2.9831 	   96.0110 	    3.0000 	   50.0000 	   38.1682
    2.8153 	   96.1780 	    3.0000 	   50.0000 	   38.3352
    2.6322 	   96.3370 	    3.0000 	   50.0000 	   38.4942
    2.6322 	   96.4930 	    3.0000 	   50.0000 	   38.6502
    2.6169 	   96.6470 	    3.0000 	   50.0000 	   38.8042
    2.6017 	   96.8070 	    3.0000 	   50.0000 	   38.9642
    2.5711 	   96.9570 	    3.0000 	   50.0000 	   39.1143
    2.3728 	   97.1270 	    3.0000 	   50.0000 	   39.2843
    2.3880 	   97.2840 	    3.0000 	   50.0000 	   39.4413
    2.3728 	   97.4390 	    3.0000 	   50.0000 	   39.5963
    2.5254 	   97.6020 	    3.0000 	   50.0000 	   39.7593
    2.4948 	   97.7560 	    3.0000 	   50.0000 	   39.9133
    2.2507 	   97.9140 	    3.0000 	   50.0000 	   40.0713
    2.4338 	   98.0730 	    3.0000 	   50.0000 	   40.2303
    2.4186 	   98.2470 	    3.0000 	   50.0000 	   40.4043
    2.2507 	   98.4120 	    3.0000 	   50.0000 	   40.5693
    2.2507 	   98.5740 	    3.0000 	   50.0000 	   40.7303
    2.2202 	   98.7300 	    3.0000 	   50.0000 	   40.8874
    1.8997 	   98.8870 	    3.0000 	   50.0000 	   41.0444
    2.1897 	   99.0480 	    3.0000 	   50.0000 	   41.2054
    2.0829 	   99.2150 	    3.0000 	   50.0000 	   41.3724
    2.1134 	   99.3810 	    3.0000 	   50.0000 	   41.5384
    2.0218 	   99.5480 	    3.0000 	   50.0000 	   41.7054
    2.0523 	   99.7160 	    3.0000 	   50.0000 	   41.8734
    2.0523 	   99.8720 	    3.0000 	   50.0000 	   42.0294
    2.0523 	  100.0290 	    3.0000 	   50.0000 	   42.1864
    1.9760 	  100.2020 	    3.0000 	   50.0000 	   42.3594
    1.8997 	  100.3710 	    3.0000 	   50.0000 	   42.5285
    1.9303 	  100.5420 	    3.0000 	   50.0000 	   42.6985
    1.9608 	  100.7090 	    3.0000 	   50.0000 	   42.8665
    1.8387 	  100.8690 	    3.0000 	   50.0000 	   43.0265
    1.9760 	  101.0210 	    3.0000 	   50.0000 	   43.1785
    1.5640 	  101.1810 	    3.0000 	   50.0000 	   43.3385
    1.8082 	  101.3360 	    3.0000 	   50.0000 	   43.4935
    1.8845 	  101.4960 	    3.0000 	   50.0000 	   43.6535
    1.7166 	  101.6620 	    3.0000 	   50.0000 	   43.8195
    1.8997 	  101.8310 	    3.0000 	   50.0000 	   43.9885
    1.8082 	  101.9890 	    3.0000 	   50.0000 	   44.1465
    1.7014 	  102.1540 	    3.0000 	   50.0000 	   44.3116
    1.8387 	  102.3140 	    3.0000 	   50.0000 	   44.4716
    1.6403 	  102.4800 	    3.0000 	   50.0000 	   44.6376
    1.8082 	  102.6490 	    3.0000 	   50.0000 	   44.8056
    1.6556 	  102.8100 	    3.0000 	   50.0000 	   44.9666
    1.6709 	  102.9700 	    3.0000 	   50.0000 	   45.1266
    1.4420 	  103.1400 	    3.0000 	   50.0000 	   45.2966
    1.4725 	  103.3070 	    3.0000 	   50.0000 	   45.4636
    1.6861 	  103.4710 	    3.0000 	   50.0000 	   45.6276
    1.5183 	  103.6340 	    3.0000 	   50.0000 	   45.7906
    1.6861 	  103.8040 	    3.0000 	   50.0000 	   45.9606
    1.5946 	  103.9620 	    3.0000 	   50.0000 	   46.1187
    1.5793 	  104.1250 	    3.0000 	   50.0000 	   46.2817
    1.6098 	  104.2890 	    3.0000 	   50.0000 	   46.4457
    1.4878 	  104.4650 	    3.0000 	   50.0000 	   46.6217
    1.6251 	  104.6370 	    3.0000 	   50.0000 	   46.7937
    1.2894 	  104.8010 	    3.0000 	   50.0000 	   46.9577
    1.6403 	  104.9580 	    3.0000 	   50.0000 	   47.1147
    1.2741 	  105.1240 	    3.0000 	   50.0000 	   47.2807
    1.5488 	  105.2950 	    3.0000 	   50.0000 	   47.4517
    1.4267 	  105.4660 	    3.0000 	   50.0000 	   47.6227
    1.4267 	  105.6410 	    3.0000 	   50.0000 	   47.7977
    1.6403 	  105.8050 	    3.0000 	   50.0000 	   47.9618
    1.2436 	  105.9660 	    3.0000 	   50.0000 	   48.1228
    1.5488 	  106.1440 	    3.0000 	   50.0000 	   48.3008
    1.4267 	  106.3220 	    3.0000 	   50.0000 	   48.4788
    1.3504 	  106.4960 	    3.0000 	   50.0000 	   48.6528
    1.3657 	  106.6690 	    3.0000 	   50.0000 	   48.8258
    1.4420 	  106.8390 	    3.0000 	   50.0000 	   48.9958
    1.3199 	  106.9990 	    3.0000 	   50.0000 	   49.1558
    1.3962 	  107.1730 	    3.0000 	   50.0000 	   49.3298
    1.1368 	  107.3470 	    3.0000 	   50.0000 	   49.5038
    1.2131 	  107.5120 	    3.0000 	   50.0000 	   49.6689
    1.1521 	  107.6790 	    3.0000 	   50.0000 	   49.8359
    1.2589 	  107.8450 	    3.0000 	   50.0000 	   50.0019
    1.2131 	  108.0050 	    3.0000 	   50.0000 	   50.1619
    1.2284 	  108.1740 	    3.0000 	   50.0000 	   50.3309
    1.0910 	  108.3310 	    3.0000 	   50.0000 	   50.4879
    1.3809 	  108.5030 	    3.0000 	   50.0000 	   50.6599
    1.2436 	  108.6780 	    3.0000 	   50.0000 	   50.8349
    1.2131 	  108.8480 	    3.0000 	   50.0000 	   51.0049
    1.3046 	  109.0070 	    3.0000 	   50.0000 	   51.1639
    1.1368 	  109.1820 	    3.0000 	   50.0000 	   51.3390
    0.8927 	  109.3490 	    3.0000 	   50.0000 	   51.5060
    1.3199 	  109.5220 	    3.0000 	   50.0000 	   51.6790
    1.2894 	  109.6960 	    3.0000 	   50.0000 	   51.8530
    1.2894 	  109.8660 	    3.0000 	   50.0000 	   52.0230
    1.1826 	  110.0220 	    3.0000 	   50.0000 	   52.1790
    1.1063 	  110.1970 	    3.0000 	   50.0000 	   52.3540
    1.0758 	  110.3550 	    3.0000 	   50.0000 	   52.5120
    1.1368 	  110.5150 	    3.0000 	   50.0000 	   52.6720
    1.1521 	  110.6880 	    3.0000 	   50.0000 	   52.8450
    1.1521 	  110.8500 	    3.0000 	   50.0000 	   53.0070
    1.0605 	  111.0060 	    3.0000 	   50.0000 	   53.1631
    1.0758 	  111.1640 	    3.0000 	   50.0000 	   53.3211
    1.0452 	  111.3260 	    3.0000 	   50.0000 	   53.4831
    1.1063 	  111.4920 	    3.0000 	   50.0000 	   53.6491
    1.1978 	  111.6670 	    3.0000 	   50.0000 	   53.8241
    1.2436 	  111.8400 	    3.0000 	   50.0000 	   53.9971
    1.0300 	  112.0030 	    3.0000 	   50.0000 	   54.1601
    0.9384 	  112.1640 	    3.0000 	   50.0000 	   54.3211
    1.0910 	  112.3340 	    3.0000 	   50.0000 	   54.4911
    1.0758 	  112.5060 	    3.0000 	   50.0000 	   54.6621
    1.0452 	  112.6830 	    3.0000 	   50.0000 	   54.8402
    1.1063 	  112.8530 	    3.0000 	   50.0000 	   55.0102
    1.1063 	  113.0160 	    3.0000 	   50.0000 	   55.1732
    1.0758 	  113.1920 	    3.0000 	   50.0000 	   55.3492
    1.1521 	  113.3580 	    3.0000 	   50.0000 	   55.5152
    0.9384 	  113.5170 	    3.0000 	   50.0000 	   55.6742
    0.8621 	  113.6910 	    3.0000 	   50.0000 	   55.8482
    0.9842 	  113.8540 	    3.0000 	   50.0000 	   56.0112
    0.8316 	  114.0230 	    3.0000 	   50.0000 	   56.1802
    1.0452 	  114.1940 	    3.0000 	   50.0000 	   56.3512
    0.9384 	  114.3540 	    3.0000 	   50.0000 	   56.5112
    0.8774 	  114.5170 	    3.0000 	   50.0000 	   56.6743
    0.9079 	  114.6940 	    3.0000 	   50.0000 	   56.8513
    1.0758 	  114.8660 	    3.0000 	   50.0000 	   57.0233
    1.0147 	  115.0270 	    3.0000 	   50.0000 	   57.1843
    0.8621 	  115.1910 	    3.0000 	   50.0000 	   57.3483
    1.0452 	  115.3510 	    3.0000 	   50.0000 	   57.5083
    0.9232 	  115.5130 	    3.0000 	   50.0000 	   57.6703
    0.9842 	  115.6790 	    3.0000 	   50.0000 	   57.8363
    0.8469 	  115.8540 	    3.0000 	   50.0000 	   58.0113
    0.8011 	  116.0160 	    3.0000 	   50.0000 	   58.1733
    0.9079 	  116.1750 	    3.0000 	   50.0000 	   58.3324
    0.9079 	  116.3420 	    3.0000 	   50.0000 	   58.4994
    0.8774 	  116.5100 	    3.0000 	   50.0000 	   58.6674
    0.9842 	  116.6800 	    3.0000 	   50.0000 	   58.8374
    0.8316 	  116.8550 	    3.0000 	   50.0000 	   59.0124
    0.9232 	  117.0230 	    3.0000 	   50.0000 	   59.1804
    0.9232 	  117.1950 	    3.0000 	   50.0000 	   59.3524
    0.8164 	  117.3750 	    3.0000 	   50.0000 	   59.5324
    0.9384 	  117.5380 	    3.0000 	   50.0000 	   59.6954
    0.7858 	  117.7050 	    3.0000 	   50.0000 	   59.8624
    0.9232 	  117.8670 	    3.0000 	   51.0000 	    0.0244
    0.8621 	  118.0300 	    3.0000 	   51.0000 	    0.1875
    0.8927 	  118.1920 	    3.0000 	   51.0000 	    0.3495
    0.9842 	  118.3550 	    3.0000 	   51.0000 	    0.5125
    0.7858 	  118.5200 	    3.0000 	   51.0000 	    0.6775
    0.7706 	  118.6880 	    3.0000 	   51.0000 	    0.8455
    0.7858 	  118.8610 	    3.0000 	   51.0000 	    1.0185
    0.8316 	  119.0270 	    3.0000 	   51.0000 	    1.1845
    0.8164 	  119.1910 	    3.0000 	   51.0000 	    1.3485
    0.7401 	  119.3690 	    3.0000 	   51.0000 	    1.5265
    0.6943 	  119.5480 	    3.0000 	   51.0000 	    1.7055
    0.9232 	  119.7190 	    3.0000 	   51.0000 	    1.8756
    0.7401 	  119.8910 	    3.0000 	   51.0000 	    2.0486
    0.7401 	  120.0630 	    3.0000 	   51.0000 	    2.2196
    0.8011 	  120.2280 	    3.0000 	   51.0000 	    2.3846
    0.9232 	  120.3900 	    3.0000 	   51.0000 	    2.5466
    0.5570 	  120.5530 	    3.0000 	   51.0000 	    2.7096
    0.8316 	  120.7290 	    3.0000 	   51.0000 	    2.8856
    0.5570 	  120.8960 	    3.0000 	   51.0000 	    3.0526
    0.7858 	  121.0610 	    3.0000 	   51.0000 	    3.2176
    0.5570 	  121.2260 	    3.0000 	   51.0000 	    3.3826
    0.5264 	  121.3940 	    3.0000 	   51.0000 	    3.5507
    0.7858 	  121.5660 	    3.0000 	   51.0000 	    3.7227
    0.6332 	  121.7470 	    3.0000 	   51.0000 	    3.9037
    0.8621 	  121.9190 	    3.0000 	   51.0000 	    4.0757
    0.8011 	  122.0900 	    3.0000 	   51.0000 	    4.2467
    0.7553 	  122.2680 	    3.0000 	   51.0000 	    4.4247
    0.6180 	  122.4470 	    3.0000 	   51.0000 	    4.6037
    0.8316 	  122.6210 	    3.0000 	   51.0000 	    4.7777
    0.6638 	  122.7830 	    3.0000 	   51.0000 	    4.9397
    0.7095 	  122.9470 	    3.0000 	   51.0000 	    5.1037
    0.7706 	  123.1120 	    3.0000 	   51.0000 	    5.2687
    0.7095 	  123.2740 	    3.0000 	   51.0000 	    5.4308
    0.6332 	  123.4400 	    3.0000 	   51.0000 	    5.5968
    0.7248 	  123.6070 	    3.0000 	   51.0000 	    5.7638
    0.6485 	  123.6950 	    3.0000 	   51.0000 	    5.8518