File: instron/deadline/bak/hysteresis/blue_15_3/blue_15_3_60_30_force.txt
Thayer School of Engineering        Instron 4442 Mechanical Testing System
7/8/2018 11:44:32 PM

  Force (N)	Extension (mm)	Not Used	Not Used	Not Used	     Hour	    Minute	    Second
    0.4044 	    0.5210 	   23.0000 	   45.0000 	    1.0883
    0.4349 	    0.6295 	   23.0000 	   45.0000 	    1.3053
    0.4196 	    0.7090 	   23.0000 	   45.0000 	    1.4643
    0.4044 	    0.8215 	   23.0000 	   45.0000 	    1.6893
    0.4654 	    0.9275 	   23.0000 	   45.0000 	    1.9013
    0.5112 	    1.0265 	   23.0000 	   45.0000 	    2.0993
    0.5875 	    1.1295 	   23.0000 	   45.0000 	    2.3043
    0.2823 	    1.2305 	   23.0000 	   45.0000 	    2.5073
    0.4501 	    1.3210 	   23.0000 	   45.0000 	    2.6884
    0.2670 	    1.4275 	   23.0000 	   45.0000 	    2.9014
    0.4959 	    1.5325 	   23.0000 	   45.0000 	    3.1114
    0.4196 	    1.6150 	   23.0000 	   45.0000 	    3.2764
    0.4349 	    1.6945 	   23.0000 	   45.0000 	    3.4354
    0.2823 	    1.7670 	   23.0000 	   45.0000 	    3.5804
    0.5417 	    1.8385 	   23.0000 	   45.0000 	    3.7234
    0.6332 	    1.9040 	   23.0000 	   45.0000 	    3.8544
    0.6485 	    1.9700 	   23.0000 	   45.0000 	    3.9864
    0.4807 	    2.0340 	   23.0000 	   45.0000 	    4.1144
    0.4959 	    2.0960 	   23.0000 	   45.0000 	    4.2384
    0.4959 	    2.1590 	   23.0000 	   45.0000 	    4.3645
    0.2670 	    2.2230 	   23.0000 	   45.0000 	    4.4925
    0.4501 	    2.2880 	   23.0000 	   45.0000 	    4.6225
    0.6180 	    2.3555 	   23.0000 	   45.0000 	    4.7575
    0.6027 	    2.4200 	   23.0000 	   45.0000 	    4.8865
    0.4501 	    2.4880 	   23.0000 	   45.0000 	    5.0225
    0.6943 	    2.5515 	   23.0000 	   45.0000 	    5.1495
    0.5570 	    2.6160 	   23.0000 	   45.0000 	    5.2785
    0.5875 	    2.6805 	   23.0000 	   45.0000 	    5.4075
    0.5875 	    2.7585 	   23.0000 	   45.0000 	    5.5635
    0.8621 	    2.8215 	   23.0000 	   45.0000 	    5.6895
    0.6943 	    2.8865 	   23.0000 	   45.0000 	    5.8195
    0.5112 	    2.9455 	   23.0000 	   45.0000 	    5.9375
    0.5570 	    3.0070 	   23.0000 	   45.0000 	    6.0606
    0.7401 	    3.0695 	   23.0000 	   45.0000 	    6.1856
    0.6943 	    3.1325 	   23.0000 	   45.0000 	    6.3116
    0.6332 	    3.1965 	   23.0000 	   45.0000 	    6.4396
    0.7706 	    3.2585 	   23.0000 	   45.0000 	    6.5626
    0.7858 	    3.3200 	   23.0000 	   45.0000 	    6.6866
    0.6180 	    3.3855 	   23.0000 	   45.0000 	    6.8176
    0.8011 	    3.4485 	   23.0000 	   45.0000 	    6.9436
    0.8316 	    3.5140 	   23.0000 	   45.0000 	    7.0746
    0.6638 	    3.5785 	   23.0000 	   45.0000 	    7.2036
    0.6943 	    3.6420 	   23.0000 	   45.0000 	    7.3306
    0.9079 	    3.7045 	   23.0000 	   45.0000 	    7.4556
    0.7858 	    3.7670 	   23.0000 	   45.0000 	    7.5806
    0.9079 	    3.8300 	   23.0000 	   45.0000 	    7.7066
    0.8774 	    3.8945 	   23.0000 	   45.0000 	    7.8357
    0.8927 	    3.9575 	   23.0000 	   45.0000 	    7.9617
    0.8621 	    4.0200 	   23.0000 	   45.0000 	    8.0867
    0.8927 	    4.0835 	   23.0000 	   45.0000 	    8.2137
    0.7706 	    4.1470 	   23.0000 	   45.0000 	    8.3407
    0.8316 	    4.2080 	   23.0000 	   45.0000 	    8.4627
    0.8927 	    4.2705 	   23.0000 	   45.0000 	    8.5877
    0.7553 	    4.3345 	   23.0000 	   45.0000 	    8.7157
    0.8621 	    4.3970 	   23.0000 	   45.0000 	    8.8407
    0.9995 	    4.4605 	   23.0000 	   45.0000 	    8.9677
    0.8621 	    4.5230 	   23.0000 	   45.0000 	    9.0927
    0.7095 	    4.5870 	   23.0000 	   45.0000 	    9.2207
    0.9384 	    4.6495 	   23.0000 	   45.0000 	    9.3457
    0.8621 	    4.7105 	   23.0000 	   45.0000 	    9.4677
    0.9995 	    4.7735 	   23.0000 	   45.0000 	    9.5938
    0.9995 	    4.8400 	   23.0000 	   45.0000 	    9.7268
    1.1673 	    4.9035 	   23.0000 	   45.0000 	    9.8538
    0.9384 	    4.9645 	   23.0000 	   45.0000 	    9.9758
    1.0452 	    5.0260 	   23.0000 	   45.0000 	   10.0988
    1.1521 	    5.1050 	   23.0000 	   45.0000 	   10.2568
    1.0758 	    5.1695 	   23.0000 	   45.0000 	   10.3858
    0.9995 	    5.2340 	   23.0000 	   45.0000 	   10.5148
    1.0758 	    5.2965 	   23.0000 	   45.0000 	   10.6398
    0.9384 	    5.3740 	   23.0000 	   45.0000 	   10.7948
    1.0605 	    5.4385 	   23.0000 	   45.0000 	   10.9238
    1.1063 	    5.5005 	   23.0000 	   45.0000 	   11.0478
    1.2436 	    5.5655 	   23.0000 	   45.0000 	   11.1778
    1.1368 	    5.6290 	   23.0000 	   45.0000 	   11.3049
    1.1673 	    5.6915 	   23.0000 	   45.0000 	   11.4299
    1.0910 	    5.7565 	   23.0000 	   45.0000 	   11.5599
    1.2894 	    5.8225 	   23.0000 	   45.0000 	   11.6919
    1.0452 	    5.8885 	   23.0000 	   45.0000 	   11.8239
    0.8621 	    5.9510 	   23.0000 	   45.0000 	   11.9489
    1.1826 	    6.0145 	   23.0000 	   45.0000 	   12.0759
    1.3046 	    6.0815 	   23.0000 	   45.0000 	   12.2099
    1.3352 	    6.1450 	   23.0000 	   45.0000 	   12.3369
    1.2131 	    6.2075 	   23.0000 	   45.0000 	   12.4619
    1.3657 	    6.2690 	   23.0000 	   45.0000 	   12.5849
    1.2436 	    6.3335 	   23.0000 	   45.0000 	   12.7139
    1.2589 	    6.3970 	   23.0000 	   45.0000 	   12.8409
    1.2284 	    6.4625 	   23.0000 	   45.0000 	   12.9719
    1.1978 	    6.5260 	   23.0000 	   45.0000 	   13.0990
    1.0910 	    6.5905 	   23.0000 	   45.0000 	   13.2280
    1.4267 	    6.6565 	   23.0000 	   45.0000 	   13.3600
    1.2894 	    6.7205 	   23.0000 	   45.0000 	   13.4880
    1.2741 	    6.7845 	   23.0000 	   45.0000 	   13.6160
    1.3504 	    6.8555 	   23.0000 	   45.0000 	   13.7580
    1.3199 	    6.9190 	   23.0000 	   45.0000 	   13.8850
    1.3962 	    6.9800 	   23.0000 	   45.0000 	   14.0070
    1.2894 	    7.0440 	   23.0000 	   45.0000 	   14.1350
    1.3199 	    7.1075 	   23.0000 	   45.0000 	   14.2620
    1.3504 	    7.1735 	   23.0000 	   45.0000 	   14.3940
    1.4725 	    7.2410 	   23.0000 	   45.0000 	   14.5290
    1.4420 	    7.3025 	   23.0000 	   45.0000 	   14.6520
    1.3962 	    7.3650 	   23.0000 	   45.0000 	   14.7770
    1.4572 	    7.4210 	   23.0000 	   45.0000 	   14.8891
    1.4725 	    7.4810 	   23.0000 	   45.0000 	   15.0091
    1.1368 	    7.5410 	   23.0000 	   45.0000 	   15.1291
    1.4115 	    7.6015 	   23.0000 	   45.0000 	   15.2501
    1.4725 	    7.6655 	   23.0000 	   45.0000 	   15.3781
    1.5030 	    7.7250 	   23.0000 	   45.0000 	   15.4971
    1.4878 	    7.7850 	   23.0000 	   45.0000 	   15.6161
    1.3962 	    7.8530 	   23.0000 	   45.0000 	   15.7521
    1.3046 	    7.9115 	   23.0000 	   45.0000 	   15.8691
    1.3962 	    7.9685 	   23.0000 	   45.0000 	   15.9831
    1.1673 	    8.0285 	   23.0000 	   45.0000 	   16.1031
    1.4115 	    8.0885 	   23.0000 	   45.0000 	   16.2231
    1.5793 	    8.1480 	   23.0000 	   45.0000 	   16.3421
    1.6098 	    8.2110 	   23.0000 	   45.0000 	   16.4681
    1.3504 	    8.2735 	   23.0000 	   45.0000 	   16.5932
    1.4115 	    8.3350 	   23.0000 	   45.0000 	   16.7162
    1.4115 	    8.3970 	   23.0000 	   45.0000 	   16.8402
    1.6556 	    8.4565 	   23.0000 	   45.0000 	   16.9592
    1.6709 	    8.5135 	   23.0000 	   45.0000 	   17.0732
    1.6251 	    8.5755 	   23.0000 	   45.0000 	   17.1972
    1.6403 	    8.6365 	   23.0000 	   45.0000 	   17.3192
    1.4725 	    8.7030 	   23.0000 	   45.0000 	   17.4522
    1.5335 	    8.7690 	   23.0000 	   45.0000 	   17.5842
    1.5030 	    8.8350 	   23.0000 	   45.0000 	   17.7162
    1.2589 	    8.9010 	   23.0000 	   45.0000 	   17.8482
    1.5335 	    8.9660 	   23.0000 	   45.0000 	   17.9782
    1.3657 	    9.0245 	   23.0000 	   45.0000 	   18.0952
    1.6098 	    9.0845 	   23.0000 	   45.0000 	   18.2152
    1.5946 	    9.1455 	   23.0000 	   45.0000 	   18.3373
    1.5488 	    9.2125 	   23.0000 	   45.0000 	   18.4713
    1.5793 	    9.2785 	   23.0000 	   45.0000 	   18.6033
    1.5946 	    9.3385 	   23.0000 	   45.0000 	   18.7233
    1.8082 	    9.4020 	   23.0000 	   45.0000 	   18.8503
    1.7014 	    9.4810 	   23.0000 	   45.0000 	   19.0083
    1.6556 	    9.5385 	   23.0000 	   45.0000 	   19.1233
    1.5640 	    9.5935 	   23.0000 	   45.0000 	   19.2333
    1.6709 	    9.6535 	   23.0000 	   45.0000 	   19.3533
    1.6556 	    9.7175 	   23.0000 	   45.0000 	   19.4813
    1.6098 	    9.7815 	   23.0000 	   45.0000 	   19.6093
    1.7166 	    9.8555 	   23.0000 	   45.0000 	   19.7573
    1.4725 	    9.9610 	   23.0000 	   45.0000 	   19.9683
    1.7166 	   10.0205 	   23.0000 	   45.0000 	   20.0874
    1.7624 	   10.0825 	   23.0000 	   45.0000 	   20.2114
    1.6861 	   10.1475 	   23.0000 	   45.0000 	   20.3414
    1.6556 	   10.2140 	   23.0000 	   45.0000 	   20.4744
    1.5488 	   10.2785 	   23.0000 	   45.0000 	   20.6034
    1.7166 	   10.3475 	   23.0000 	   45.0000 	   20.7414
    1.7777 	   10.4135 	   23.0000 	   45.0000 	   20.8734
    1.4572 	   10.4775 	   23.0000 	   45.0000 	   21.0014
    1.5946 	   10.5460 	   23.0000 	   45.0000 	   21.1384
    1.5793 	   10.6045 	   23.0000 	   45.0000 	   21.2554
    1.6709 	   10.6640 	   23.0000 	   45.0000 	   21.3744
    1.6709 	   10.7220 	   23.0000 	   45.0000 	   21.4904
    1.6556 	   10.7790 	   23.0000 	   45.0000 	   21.6044
    1.7166 	   10.8430 	   23.0000 	   45.0000 	   21.7324
    1.7777 	   10.9045 	   23.0000 	   45.0000 	   21.8555
    1.7014 	   10.9660 	   23.0000 	   45.0000 	   21.9785
    1.7777 	   11.0310 	   23.0000 	   45.0000 	   22.1085
    1.5946 	   11.1000 	   23.0000 	   45.0000 	   22.2465
    1.8082 	   11.1665 	   23.0000 	   45.0000 	   22.3795
    1.8082 	   11.2345 	   23.0000 	   45.0000 	   22.5155
    1.7472 	   11.3025 	   23.0000 	   45.0000 	   22.6515
    1.8692 	   11.3685 	   23.0000 	   45.0000 	   22.7835
    1.8082 	   11.4375 	   23.0000 	   45.0000 	   22.9205
    1.7166 	   11.5030 	   23.0000 	   45.0000 	   23.0525
    1.8692 	   11.5700 	   23.0000 	   45.0000 	   23.1865
    1.9608 	   11.6405 	   23.0000 	   45.0000 	   23.3275
    1.7929 	   11.7080 	   23.0000 	   45.0000 	   23.4625
    1.8387 	   11.7755 	   23.0000 	   45.0000 	   23.5976
    1.7624 	   11.8415 	   23.0000 	   45.0000 	   23.7296
    1.7777 	   11.9095 	   23.0000 	   45.0000 	   23.8656
    1.7624 	   11.9750 	   23.0000 	   45.0000 	   23.9966
    1.8082 	   12.0580 	   23.0000 	   45.0000 	   24.1626
    1.8997 	   12.1220 	   23.0000 	   45.0000 	   24.2906
    1.9455 	   12.1900 	   23.0000 	   45.0000 	   24.4266
    1.8387 	   12.2600 	   23.0000 	   45.0000 	   24.5666
    1.7319 	   12.3275 	   23.0000 	   45.0000 	   24.7016
    1.8997 	   12.3930 	   23.0000 	   45.0000 	   24.8326
    1.8235 	   12.4645 	   23.0000 	   45.0000 	   24.9756
    1.8387 	   12.5320 	   23.0000 	   45.0000 	   25.1106
    1.8540 	   12.6005 	   23.0000 	   45.0000 	   25.2476
    1.9913 	   12.6675 	   23.0000 	   45.0000 	   25.3817
    1.9913 	   12.7350 	   23.0000 	   45.0000 	   25.5167
    1.9455 	   12.8055 	   23.0000 	   45.0000 	   25.6577
    1.7929 	   12.8730 	   23.0000 	   45.0000 	   25.7927
    1.9608 	   12.9325 	   23.0000 	   45.0000 	   25.9117
    1.9455 	   12.9915 	   23.0000 	   45.0000 	   26.0297
    1.8387 	   13.0580 	   23.0000 	   45.0000 	   26.1627
    1.9303 	   13.1255 	   23.0000 	   45.0000 	   26.2977
    1.9455 	   13.1920 	   23.0000 	   45.0000 	   26.4307
    2.0218 	   13.2585 	   23.0000 	   45.0000 	   26.5637
    1.8692 	   13.3285 	   23.0000 	   45.0000 	   26.7037
    1.9303 	   13.3975 	   23.0000 	   45.0000 	   26.8417
    1.8692 	   13.4635 	   23.0000 	   45.0000 	   26.9737
    2.0066 	   13.5305 	   23.0000 	   45.0000 	   27.1078
    1.9455 	   13.5985 	   23.0000 	   45.0000 	   27.2438
    1.9303 	   13.6665 	   23.0000 	   45.0000 	   27.3798
    1.8235 	   13.7345 	   23.0000 	   45.0000 	   27.5158
    1.9913 	   13.8055 	   23.0000 	   45.0000 	   27.6578
    1.8845 	   13.8730 	   23.0000 	   45.0000 	   27.7928
    1.9608 	   13.9410 	   23.0000 	   45.0000 	   27.9288
    1.7777 	   14.0090 	   23.0000 	   45.0000 	   28.0648
    2.0523 	   14.0790 	   23.0000 	   45.0000 	   28.2048
    2.1592 	   14.1470 	   23.0000 	   45.0000 	   28.3408
    2.0523 	   14.2140 	   23.0000 	   45.0000 	   28.4748
    1.7166 	   14.2815 	   23.0000 	   45.0000 	   28.6098
    2.0829 	   14.3505 	   23.0000 	   45.0000 	   28.7478
    2.1439 	   14.4180 	   23.0000 	   45.0000 	   28.8829
    2.1286 	   14.4865 	   23.0000 	   45.0000 	   29.0199
    2.0676 	   14.5600 	   23.0000 	   45.0000 	   29.1669
    2.0829 	   14.6280 	   23.0000 	   45.0000 	   29.3029
    2.1744 	   14.6975 	   23.0000 	   45.0000 	   29.4419
    2.0981 	   14.7660 	   23.0000 	   45.0000 	   29.5789
    2.1592 	   14.8345 	   23.0000 	   45.0000 	   29.7159
    2.1134 	   14.9025 	   23.0000 	   45.0000 	   29.8519
    2.1439 	   14.9725 	   23.0000 	   45.0000 	   29.9919
    2.0371 	   15.0430 	   23.0000 	   45.0000 	   30.1329
    2.1439 	   15.1110 	   23.0000 	   45.0000 	   30.2689
    2.0829 	   15.1810 	   23.0000 	   45.0000 	   30.4089
    2.1592 	   15.2490 	   23.0000 	   45.0000 	   30.5450
    2.1744 	   15.3180 	   23.0000 	   45.0000 	   30.6830
    1.8387 	   15.3865 	   23.0000 	   45.0000 	   30.8200
    2.1897 	   15.4575 	   23.0000 	   45.0000 	   30.9620
    2.1286 	   15.5290 	   23.0000 	   45.0000 	   31.1050
    2.3270 	   15.6005 	   23.0000 	   45.0000 	   31.2480
    2.1897 	   15.6675 	   23.0000 	   45.0000 	   31.3820
    2.2965 	   15.7355 	   23.0000 	   45.0000 	   31.5180
    2.1286 	   15.8035 	   23.0000 	   45.0000 	   31.6540
    2.2354 	   15.8715 	   23.0000 	   45.0000 	   31.7900
    2.2354 	   15.9385 	   23.0000 	   45.0000 	   31.9240
    2.2507 	   16.0075 	   23.0000 	   45.0000 	   32.0620
    2.2507 	   16.0785 	   23.0000 	   45.0000 	   32.2040
    2.2049 	   16.1480 	   23.0000 	   45.0000 	   32.3431
    2.4338 	   16.2165 	   23.0000 	   45.0000 	   32.4801
    2.2049 	   16.2850 	   23.0000 	   45.0000 	   32.6171
    2.2049 	   16.3570 	   23.0000 	   45.0000 	   32.7611
    2.4338 	   16.4255 	   23.0000 	   45.0000 	   32.8981
    2.2660 	   16.4960 	   23.0000 	   45.0000 	   33.0381
    2.2049 	   16.5675 	   23.0000 	   45.0000 	   33.1811
    2.2354 	   16.6360 	   23.0000 	   45.0000 	   33.3181
    2.2354 	   16.7045 	   23.0000 	   45.0000 	   33.4551
    2.2507 	   16.7765 	   23.0000 	   45.0000 	   33.5991
    2.4491 	   16.8430 	   23.0000 	   45.0000 	   33.7321
    2.3117 	   16.9115 	   23.0000 	   45.0000 	   33.8691
    2.2660 	   16.9740 	   23.0000 	   45.0000 	   33.9941
    2.4033 	   17.0400 	   23.0000 	   45.0000 	   34.1262
    2.4033 	   17.1015 	   23.0000 	   45.0000 	   34.2492
    2.2812 	   17.1635 	   23.0000 	   45.0000 	   34.3732
    2.3117 	   17.2250 	   23.0000 	   45.0000 	   34.4962
    2.2507 	   17.2860 	   23.0000 	   45.0000 	   34.6182
    2.4033 	   17.3505 	   23.0000 	   45.0000 	   34.7472
    2.2660 	   17.4205 	   23.0000 	   45.0000 	   34.8872
    2.4186 	   17.4900 	   23.0000 	   45.0000 	   35.0262
    2.3423 	   17.5595 	   23.0000 	   45.0000 	   35.1652
    2.3575 	   17.6275 	   23.0000 	   45.0000 	   35.3012
    2.4186 	   17.6985 	   23.0000 	   45.0000 	   35.4432
    2.3270 	   17.7670 	   23.0000 	   45.0000 	   35.5802
    2.3728 	   17.8365 	   23.0000 	   45.0000 	   35.7192
    2.3117 	   17.9075 	   23.0000 	   45.0000 	   35.8613
    2.3880 	   17.9755 	   23.0000 	   45.0000 	   35.9973
    2.5254 	   18.0465 	   23.0000 	   45.0000 	   36.1393
    2.5406 	   18.1160 	   23.0000 	   45.0000 	   36.2783
    2.3880 	   18.1875 	   23.0000 	   45.0000 	   36.4213
    2.3575 	   18.2575 	   23.0000 	   45.0000 	   36.5613
    2.4186 	   18.3270 	   23.0000 	   45.0000 	   36.7003
    2.4491 	   18.3970 	   23.0000 	   45.0000 	   36.8403
    2.4186 	   18.4690 	   23.0000 	   45.0000 	   36.9843
    2.6474 	   18.5580 	   23.0000 	   45.0000 	   37.1623
    2.5254 	   18.6275 	   23.0000 	   45.0000 	   37.3013
    2.3880 	   18.6990 	   23.0000 	   45.0000 	   37.4443
    2.4948 	   18.7685 	   23.0000 	   45.0000 	   37.5834
    2.3880 	   18.8420 	   23.0000 	   45.0000 	   37.7304
    2.5101 	   18.9090 	   23.0000 	   45.0000 	   37.8644
    2.4491 	   18.9775 	   23.0000 	   45.0000 	   38.0014
    2.4186 	   19.0520 	   23.0000 	   45.0000 	   38.1504
    2.5559 	   19.1225 	   23.0000 	   45.0000 	   38.2914
    2.5254 	   19.1940 	   23.0000 	   45.0000 	   38.4344
    2.6017 	   19.2645 	   23.0000 	   45.0000 	   38.5754
    2.5711 	   19.3355 	   23.0000 	   45.0000 	   38.7174
    2.5101 	   19.4060 	   23.0000 	   45.0000 	   38.8584
    2.5864 	   19.4795 	   23.0000 	   45.0000 	   39.0054
    2.6627 	   19.5510 	   23.0000 	   45.0000 	   39.1484
    2.7237 	   19.6225 	   23.0000 	   45.0000 	   39.2915
    2.7085 	   19.6950 	   23.0000 	   45.0000 	   39.4365
    2.5101 	   19.7665 	   23.0000 	   45.0000 	   39.5795
    2.6017 	   19.8360 	   23.0000 	   45.0000 	   39.7185
    2.5559 	   19.9085 	   23.0000 	   45.0000 	   39.8635
    2.5254 	   19.9800 	   23.0000 	   45.0000 	   40.0065
    2.4338 	   20.0520 	   23.0000 	   45.0000 	   40.1505
    2.5864 	   20.1230 	   23.0000 	   45.0000 	   40.2925
    2.6780 	   20.1955 	   23.0000 	   45.0000 	   40.4375
    2.7390 	   20.2670 	   23.0000 	   45.0000 	   40.5805
    2.5559 	   20.3390 	   23.0000 	   45.0000 	   40.7245
    2.6169 	   20.4095 	   23.0000 	   45.0000 	   40.8655
    2.6169 	   20.4825 	   23.0000 	   45.0000 	   41.0116
    2.5864 	   20.5575 	   23.0000 	   45.0000 	   41.1616
    2.6169 	   20.6280 	   23.0000 	   45.0000 	   41.3026
    2.5406 	   20.6975 	   23.0000 	   45.0000 	   41.4416
    2.7085 	   20.7685 	   23.0000 	   45.0000 	   41.5836
    2.5101 	   20.8420 	   23.0000 	   45.0000 	   41.7306
    2.6627 	   20.9130 	   23.0000 	   45.0000 	   41.8726
    2.6780 	   20.9865 	   23.0000 	   45.0000 	   42.0196
    2.6322 	   21.0580 	   23.0000 	   45.0000 	   42.1626
    2.7237 	   21.1305 	   23.0000 	   45.0000 	   42.3076
    2.6169 	   21.2030 	   23.0000 	   45.0000 	   42.4526
    2.7237 	   21.2750 	   23.0000 	   45.0000 	   42.5966
    2.7085 	   21.3455 	   23.0000 	   45.0000 	   42.7376
    2.8153 	   21.4150 	   23.0000 	   45.0000 	   42.8767
    2.9221 	   21.4870 	   23.0000 	   45.0000 	   43.0207
    2.8153 	   21.5590 	   23.0000 	   45.0000 	   43.1647
    2.7085 	   21.6300 	   23.0000 	   45.0000 	   43.3067
    2.8153 	   21.7020 	   23.0000 	   45.0000 	   43.4507
    2.7848 	   21.7740 	   23.0000 	   45.0000 	   43.5947
    2.7848 	   21.8475 	   23.0000 	   45.0000 	   43.7417
    2.8763 	   21.9190 	   23.0000 	   45.0000 	   43.8847
    2.7085 	   21.9905 	   23.0000 	   45.0000 	   44.0277
    2.8763 	   22.0645 	   23.0000 	   45.0000 	   44.1757
    2.6932 	   22.1345 	   23.0000 	   45.0000 	   44.3157
    2.9526 	   22.2055 	   23.0000 	   45.0000 	   44.4577
    2.8763 	   22.2785 	   23.0000 	   45.0000 	   44.6038
    2.8611 	   22.3510 	   23.0000 	   45.0000 	   44.7488
    2.7695 	   22.4215 	   23.0000 	   45.0000 	   44.8898
    2.7695 	   22.4950 	   23.0000 	   45.0000 	   45.0368
    2.8611 	   22.5720 	   23.0000 	   45.0000 	   45.1908
    2.8916 	   22.6430 	   23.0000 	   45.0000 	   45.3328
    2.9068 	   22.7135 	   23.0000 	   45.0000 	   45.4738
    2.9068 	   22.7865 	   23.0000 	   45.0000 	   45.6198
    2.9374 	   22.8605 	   23.0000 	   45.0000 	   45.7678
    2.8305 	   22.9330 	   23.0000 	   45.0000 	   45.9128
    2.8611 	   23.0040 	   23.0000 	   45.0000 	   46.0548
    2.9068 	   23.0780 	   23.0000 	   45.0000 	   46.2028
    2.8611 	   23.1505 	   23.0000 	   45.0000 	   46.3479
    3.1205 	   23.2255 	   23.0000 	   45.0000 	   46.4979
    2.8611 	   23.2985 	   23.0000 	   45.0000 	   46.6439
    3.0137 	   23.3695 	   23.0000 	   45.0000 	   46.7859
    2.9068 	   23.4405 	   23.0000 	   45.0000 	   46.9279
    2.9526 	   23.5140 	   23.0000 	   45.0000 	   47.0749
    2.9068 	   23.5870 	   23.0000 	   45.0000 	   47.2209
    2.8763 	   23.6605 	   23.0000 	   45.0000 	   47.3679
    2.9679 	   23.7340 	   23.0000 	   45.0000 	   47.5149
    2.9068 	   23.8065 	   23.0000 	   45.0000 	   47.6599
    3.0137 	   23.8785 	   23.0000 	   45.0000 	   47.8039
    3.1052 	   23.9525 	   23.0000 	   45.0000 	   47.9519
    2.8916 	   24.0245 	   23.0000 	   45.0000 	   48.0960
    3.0137 	   24.1005 	   23.0000 	   45.0000 	   48.2480
    3.0442 	   24.1730 	   23.0000 	   45.0000 	   48.3930
    3.0900 	   24.2465 	   23.0000 	   45.0000 	   48.5400
    2.9526 	   24.3205 	   23.0000 	   45.0000 	   48.6880
    3.1968 	   24.3945 	   23.0000 	   45.0000 	   48.8360
    3.0747 	   24.4690 	   23.0000 	   45.0000 	   48.9850
    3.0289 	   24.5460 	   23.0000 	   45.0000 	   49.1390
    3.1205 	   24.6200 	   23.0000 	   45.0000 	   49.2870
    3.0900 	   24.6945 	   23.0000 	   45.0000 	   49.4360
    3.0747 	   24.7675 	   23.0000 	   45.0000 	   49.5820
    3.1815 	   24.8420 	   23.0000 	   45.0000 	   49.7310
    3.0442 	   24.9165 	   23.0000 	   45.0000 	   49.8801
    3.1968 	   24.9885 	   23.0000 	   45.0000 	   50.0241
    3.0747 	   25.0640 	   23.0000 	   45.0000 	   50.1751
    3.1205 	   25.1385 	   23.0000 	   45.0000 	   50.3241
    3.0594 	   25.2130 	   23.0000 	   45.0000 	   50.4731
    3.0137 	   25.2860 	   23.0000 	   45.0000 	   50.6181
    3.1815 	   25.3595 	   23.0000 	   45.0000 	   50.7651
    3.1662 	   25.4330 	   23.0000 	   45.0000 	   50.9121
    3.1662 	   25.5040 	   23.0000 	   45.0000 	   51.0541
    3.0594 	   25.5795 	   23.0000 	   45.0000 	   51.2051
    3.1815 	   25.6525 	   23.0000 	   45.0000 	   51.3511
    3.2425 	   25.7265 	   23.0000 	   45.0000 	   51.4991
    3.0289 	   25.8005 	   23.0000 	   45.0000 	   51.6472
    3.1968 	   25.8755 	   23.0000 	   45.0000 	   51.7972
    3.1968 	   25.9500 	   23.0000 	   45.0000 	   51.9462
    3.2273 	   26.0220 	   23.0000 	   45.0000 	   52.0902
    3.2578 	   26.0965 	   23.0000 	   45.0000 	   52.2392
    3.1357 	   26.1665 	   23.0000 	   45.0000 	   52.3792
    2.9679 	   26.2360 	   23.0000 	   45.0000 	   52.5182
    2.9679 	   26.3015 	   23.0000 	   45.0000 	   52.6492
    3.2120 	   26.3680 	   23.0000 	   45.0000 	   52.7822
    3.2273 	   26.4345 	   23.0000 	   45.0000 	   52.9152
    3.2578 	   26.5010 	   23.0000 	   45.0000 	   53.0482
    3.2883 	   26.5685 	   23.0000 	   45.0000 	   53.1832
    3.2120 	   26.6350 	   23.0000 	   45.0000 	   53.3163
    3.3036 	   26.7015 	   23.0000 	   45.0000 	   53.4483
    3.2731 	   26.7670 	   23.0000 	   45.0000 	   53.5803
    3.3799 	   26.8345 	   23.0000 	   45.0000 	   53.7153
    3.1968 	   26.9085 	   23.0000 	   45.0000 	   53.8633
    3.2578 	   26.9815 	   23.0000 	   45.0000 	   54.0093
    3.4714 	   27.0580 	   23.0000 	   45.0000 	   54.1623
    3.1968 	   27.1320 	   23.0000 	   45.0000 	   54.3103
    3.2883 	   27.2045 	   23.0000 	   45.0000 	   54.4553
    3.3188 	   27.2770 	   23.0000 	   45.0000 	   54.6003
    3.3036 	   27.3520 	   23.0000 	   45.0000 	   54.7503
    3.3036 	   27.4275 	   23.0000 	   45.0000 	   54.9013
    3.4257 	   27.4975 	   23.0000 	   45.0000 	   55.0414
    3.4257 	   27.5745 	   23.0000 	   45.0000 	   55.1954
    3.3646 	   27.6465 	   23.0000 	   45.0000 	   55.3394
    3.2578 	   27.7215 	   23.0000 	   45.0000 	   55.4894
    3.3494 	   27.7970 	   23.0000 	   45.0000 	   55.6404
    3.4714 	   27.8730 	   23.0000 	   45.0000 	   55.7924
    3.3646 	   27.9480 	   23.0000 	   45.0000 	   55.9424
    3.3646 	   28.0180 	   23.0000 	   45.0000 	   56.0824
    3.4562 	   28.0950 	   23.0000 	   45.0000 	   56.2364
    3.4562 	   28.1705 	   23.0000 	   45.0000 	   56.3874
    3.4714 	   28.2430 	   23.0000 	   45.0000 	   56.5324
    3.4257 	   28.3185 	   23.0000 	   45.0000 	   56.6834
    3.2731 	   28.3935 	   23.0000 	   45.0000 	   56.8335
    3.6240 	   28.4680 	   23.0000 	   45.0000 	   56.9825
    3.1815 	   28.5450 	   23.0000 	   45.0000 	   57.1365
    3.4104 	   28.6210 	   23.0000 	   45.0000 	   57.2885
    3.5325 	   28.6980 	   23.0000 	   45.0000 	   57.4425
    3.5325 	   28.7740 	   23.0000 	   45.0000 	   57.5945
    3.4562 	   28.8475 	   23.0000 	   45.0000 	   57.7415
    3.4409 	   28.9220 	   23.0000 	   45.0000 	   57.8905
    3.4867 	   28.9975 	   23.0000 	   45.0000 	   58.0415
    3.6240 	   29.0755 	   23.0000 	   45.0000 	   58.1975
    3.4257 	   29.1495 	   23.0000 	   45.0000 	   58.3455
    3.5477 	   29.2270 	   23.0000 	   45.0000 	   58.5005
    3.5172 	   29.3020 	   23.0000 	   45.0000 	   58.6506
    3.4257 	   29.3765 	   23.0000 	   45.0000 	   58.7996
    3.5019 	   29.4515 	   23.0000 	   45.0000 	   58.9496
    3.5019 	   29.5240 	   23.0000 	   45.0000 	   59.0946
    3.5477 	   29.6005 	   23.0000 	   45.0000 	   59.2476
    3.5782 	   29.6765 	   23.0000 	   45.0000 	   59.3996
    3.5172 	   29.7540 	   23.0000 	   45.0000 	   59.5546
    3.5935 	   29.8305 	   23.0000 	   45.0000 	   59.7076
    3.6545 	   29.9050 	   23.0000 	   45.0000 	   59.8566
    3.6088 	   29.9730 	   23.0000 	   45.0000 	   59.9926
    3.7613 	   30.0410 	   23.0000 	   46.0000 	    0.1286
    3.6851 	   30.1135 	   23.0000 	   46.0000 	    0.2737
    3.6851 	   30.1900 	   23.0000 	   46.0000 	    0.4267
    3.6240 	   30.2665 	   23.0000 	   46.0000 	    0.5797
    3.7156 	   30.3425 	   23.0000 	   46.0000 	    0.7317
    3.7766 	   30.4165 	   23.0000 	   46.0000 	    0.8797
    3.5935 	   30.4910 	   23.0000 	   46.0000 	    1.0287
    3.6240 	   30.5670 	   23.0000 	   46.0000 	    1.1807
    3.7308 	   30.6435 	   23.0000 	   46.0000 	    1.3337
    3.6393 	   30.7140 	   23.0000 	   46.0000 	    1.4747
    3.6240 	   30.7890 	   23.0000 	   46.0000 	    1.6247
    3.6393 	   30.8655 	   23.0000 	   46.0000 	    1.7777
    3.7003 	   30.9415 	   23.0000 	   46.0000 	    1.9297
    3.8376 	   31.0190 	   23.0000 	   46.0000 	    2.0848
    3.8376 	   31.0960 	   23.0000 	   46.0000 	    2.2388
    3.7308 	   31.1730 	   23.0000 	   46.0000 	    2.3928
    3.7308 	   31.2505 	   23.0000 	   46.0000 	    2.5478
    3.7156 	   31.3275 	   23.0000 	   46.0000 	    2.7018
    3.8224 	   31.4035 	   23.0000 	   46.0000 	    2.8538
    3.7156 	   31.4805 	   23.0000 	   46.0000 	    3.0078
    3.6698 	   31.5565 	   23.0000 	   46.0000 	    3.1598
    3.7613 	   31.6335 	   23.0000 	   46.0000 	    3.3138
    3.8224 	   31.7105 	   23.0000 	   46.0000 	    3.4678
    3.8682 	   31.7875 	   23.0000 	   46.0000 	    3.6218
    3.7919 	   31.8665 	   23.0000 	   46.0000 	    3.7799
    3.7003 	   31.9425 	   23.0000 	   46.0000 	    3.9319
    3.8071 	   32.0180 	   23.0000 	   46.0000 	    4.0829
    3.7919 	   32.0955 	   23.0000 	   46.0000 	    4.2379
    3.9445 	   32.1715 	   23.0000 	   46.0000 	    4.3899
    3.6393 	   32.2480 	   23.0000 	   46.0000 	    4.5429
    3.9750 	   32.3255 	   23.0000 	   46.0000 	    4.6979
    3.8834 	   32.4030 	   23.0000 	   46.0000 	    4.8529
    3.9750 	   32.4800 	   23.0000 	   46.0000 	    5.0069
    3.8376 	   32.5585 	   23.0000 	   46.0000 	    5.1639
    3.7766 	   32.6345 	   23.0000 	   46.0000 	    5.3159
    4.0360 	   32.7135 	   23.0000 	   46.0000 	    5.4739
    3.9597 	   32.7925 	   23.0000 	   46.0000 	    5.6320
    3.9445 	   32.8695 	   23.0000 	   46.0000 	    5.7860
    3.8529 	   32.9470 	   23.0000 	   46.0000 	    5.9410
    3.8987 	   33.0200 	   23.0000 	   46.0000 	    6.0870
    3.8376 	   33.1005 	   23.0000 	   46.0000 	    6.2480
    3.8224 	   33.1770 	   23.0000 	   46.0000 	    6.4010
    3.9597 	   33.2545 	   23.0000 	   46.0000 	    6.5560
    3.9597 	   33.3315 	   23.0000 	   46.0000 	    6.7100
    4.0665 	   33.4085 	   23.0000 	   46.0000 	    6.8640
    4.0055 	   33.4880 	   23.0000 	   46.0000 	    7.0230
    3.8529 	   33.5625 	   23.0000 	   46.0000 	    7.1720
    3.5782 	   33.6425 	   23.0000 	   46.0000 	    7.3321
    3.8529 	   33.7185 	   23.0000 	   46.0000 	    7.4841
    4.1123 	   33.7940 	   23.0000 	   46.0000 	    7.6351
    4.1581 	   33.8720 	   23.0000 	   46.0000 	    7.7911
    3.9750 	   33.9495 	   23.0000 	   46.0000 	    7.9461
    4.0665 	   34.0265 	   23.0000 	   46.0000 	    8.0991
    4.0818 	   34.1050 	   23.0000 	   46.0000 	    8.2561
    4.0818 	   34.1830 	   23.0000 	   46.0000 	    8.4121
    3.9902 	   34.2600 	   23.0000 	   46.0000 	    8.5661
    4.0513 	   34.3375 	   23.0000 	   46.0000 	    8.7211
    4.1276 	   34.4160 	   23.0000 	   46.0000 	    8.8781
    4.1733 	   34.4945 	   23.0000 	   46.0000 	    9.0352
    4.2496 	   34.5735 	   23.0000 	   46.0000 	    9.1932
    4.0665 	   34.6510 	   23.0000 	   46.0000 	    9.3482
    4.1581 	   34.7285 	   23.0000 	   46.0000 	    9.5032
    4.0208 	   34.8065 	   23.0000 	   46.0000 	    9.6592
    4.1428 	   34.8855 	   23.0000 	   46.0000 	    9.8172
    4.2954 	   34.9605 	   23.0000 	   46.0000 	    9.9672
    4.1733 	   35.0305 	   23.0000 	   46.0000 	   10.1072
    4.2191 	   35.1210 	   23.0000 	   46.0000 	   10.2882
    4.3717 	   35.1930 	   23.0000 	   46.0000 	   10.4322
    4.1886 	   35.2695 	   23.0000 	   46.0000 	   10.5852
    4.2191 	   35.3490 	   23.0000 	   46.0000 	   10.7443
    4.2039 	   35.4265 	   23.0000 	   46.0000 	   10.8993
    4.0970 	   35.5055 	   23.0000 	   46.0000 	   11.0573
    4.2802 	   35.5840 	   23.0000 	   46.0000 	   11.2143
    4.2649 	   35.6635 	   23.0000 	   46.0000 	   11.3733
    4.2954 	   35.7410 	   23.0000 	   46.0000 	   11.5283
    4.3412 	   35.8265 	   23.0000 	   46.0000 	   11.6993
    4.2344 	   35.9030 	   23.0000 	   46.0000 	   11.8523
    4.3565 	   35.9820 	   23.0000 	   46.0000 	   12.0103
    4.2802 	   36.0610 	   23.0000 	   46.0000 	   12.1683
    4.4480 	   36.1385 	   23.0000 	   46.0000 	   12.3233
    4.4327 	   36.2170 	   23.0000 	   46.0000 	   12.4803
    4.3107 	   36.2975 	   23.0000 	   46.0000 	   12.6414
    4.4327 	   36.3765 	   23.0000 	   46.0000 	   12.7994
    4.2954 	   36.4550 	   23.0000 	   46.0000 	   12.9564
    4.3412 	   36.5335 	   23.0000 	   46.0000 	   13.1134
    4.3107 	   36.6130 	   23.0000 	   46.0000 	   13.2724
    4.3259 	   36.6920 	   23.0000 	   46.0000 	   13.4304
    4.4480 	   36.7720 	   23.0000 	   46.0000 	   13.5904
    4.1733 	   36.8525 	   23.0000 	   46.0000 	   13.7514
    4.1886 	   36.9325 	   23.0000 	   46.0000 	   13.9114
    4.3259 	   37.0120 	   23.0000 	   46.0000 	   14.0704
    4.4633 	   37.0925 	   23.0000 	   46.0000 	   14.2314
    4.3870 	   37.1725 	   23.0000 	   46.0000 	   14.3915
    4.4785 	   37.2515 	   23.0000 	   46.0000 	   14.5495
    4.4480 	   37.3310 	   23.0000 	   46.0000 	   14.7085
    4.5396 	   37.4095 	   23.0000 	   46.0000 	   14.8655
    4.5396 	   37.4860 	   23.0000 	   46.0000 	   15.0185
    4.4938 	   37.5630 	   23.0000 	   46.0000 	   15.1725
    4.4327 	   37.6420 	   23.0000 	   46.0000 	   15.3305
    4.4785 	   37.7200 	   23.0000 	   46.0000 	   15.4865
    4.5701 	   37.7975 	   23.0000 	   46.0000 	   15.6415
    4.4633 	   37.8725 	   23.0000 	   46.0000 	   15.7915
    4.5090 	   37.9510 	   23.0000 	   46.0000 	   15.9485
    4.5701 	   38.0260 	   23.0000 	   46.0000 	   16.0986
    4.5548 	   38.1050 	   23.0000 	   46.0000 	   16.2566
    4.5853 	   38.1845 	   23.0000 	   46.0000 	   16.4156
    4.5090 	   38.2665 	   23.0000 	   46.0000 	   16.5796
    4.6769 	   38.3435 	   23.0000 	   46.0000 	   16.7336
    4.4785 	   38.4225 	   23.0000 	   46.0000 	   16.8916
    4.6159 	   38.4990 	   23.0000 	   46.0000 	   17.0446
    4.5701 	   38.5700 	   23.0000 	   46.0000 	   17.1866
    4.6311 	   38.6450 	   23.0000 	   46.0000 	   17.3366
    4.5853 	   38.7235 	   23.0000 	   46.0000 	   17.4936
    4.6464 	   38.8060 	   23.0000 	   46.0000 	   17.6586
    4.8295 	   38.8880 	   23.0000 	   46.0000 	   17.8227
    4.5243 	   38.9675 	   23.0000 	   46.0000 	   17.9817
    4.7074 	   39.0465 	   23.0000 	   46.0000 	   18.1397
    4.6616 	   39.1270 	   23.0000 	   46.0000 	   18.3007
    4.5243 	   39.2075 	   23.0000 	   46.0000 	   18.4617
    4.6464 	   39.2895 	   23.0000 	   46.0000 	   18.6257
    4.7379 	   39.3695 	   23.0000 	   46.0000 	   18.7857
    4.6006 	   39.4505 	   23.0000 	   46.0000 	   18.9477
    4.4480 	   39.5310 	   23.0000 	   46.0000 	   19.1087
    4.7074 	   39.6100 	   23.0000 	   46.0000 	   19.2667
    4.7074 	   39.6920 	   23.0000 	   46.0000 	   19.4307
    4.7379 	   39.7710 	   23.0000 	   46.0000 	   19.5888
    4.8905 	   39.8510 	   23.0000 	   46.0000 	   19.7488
    4.6006 	   39.9310 	   23.0000 	   46.0000 	   19.9088
    4.7379 	   40.0110 	   23.0000 	   46.0000 	   20.0688
    4.9668 	   40.0940 	   23.0000 	   46.0000 	   20.2348
    4.8142 	   40.1750 	   23.0000 	   46.0000 	   20.3968
    4.6769 	   40.2535 	   23.0000 	   46.0000 	   20.5538
    4.8142 	   40.3335 	   23.0000 	   46.0000 	   20.7138
    4.8905 	   40.4140 	   23.0000 	   46.0000 	   20.8748
    4.9058 	   40.4935 	   23.0000 	   46.0000 	   21.0338
    4.9821 	   40.5705 	   23.0000 	   46.0000 	   21.1878
    4.8905 	   40.6545 	   23.0000 	   46.0000 	   21.3559
    4.8295 	   40.7350 	   23.0000 	   46.0000 	   21.5169
    4.8753 	   40.8140 	   23.0000 	   46.0000 	   21.6749
    4.7684 	   40.8945 	   23.0000 	   46.0000 	   21.8359
    4.8295 	   40.9755 	   23.0000 	   46.0000 	   21.9979
    4.8447 	   41.0580 	   23.0000 	   46.0000 	   22.1629
    4.9516 	   41.1360 	   23.0000 	   46.0000 	   22.3189
    4.9363 	   41.2150 	   23.0000 	   46.0000 	   22.4769
    4.8753 	   41.2950 	   23.0000 	   46.0000 	   22.6369
    4.9058 	   41.3765 	   23.0000 	   46.0000 	   22.7999
    4.9363 	   41.4580 	   23.0000 	   46.0000 	   22.9629
    5.1194 	   41.5395 	   23.0000 	   46.0000 	   23.1260
    5.0584 	   41.6210 	   23.0000 	   46.0000 	   23.2890
    4.9516 	   41.6995 	   23.0000 	   46.0000 	   23.4460
    5.0584 	   41.7785 	   23.0000 	   46.0000 	   23.6040
    5.0889 	   41.8650 	   23.0000 	   46.0000 	   23.7770
    5.0126 	   41.9465 	   23.0000 	   46.0000 	   23.9400
    5.0736 	   42.0265 	   23.0000 	   46.0000 	   24.1000
    5.0278 	   42.1050 	   23.0000 	   46.0000 	   24.2570
    5.0126 	   42.1845 	   23.0000 	   46.0000 	   24.4160
    4.9363 	   42.2625 	   23.0000 	   46.0000 	   24.5720
    5.1804 	   42.3415 	   23.0000 	   46.0000 	   24.7300
    5.1499 	   42.4240 	   23.0000 	   46.0000 	   24.8951
    5.1804 	   42.5035 	   23.0000 	   46.0000 	   25.0541
    5.1041 	   42.5810 	   23.0000 	   46.0000 	   25.2091
    5.1041 	   42.6540 	   23.0000 	   46.0000 	   25.3551
    5.0736 	   42.7265 	   23.0000 	   46.0000 	   25.4991
    5.0584 	   42.8060 	   23.0000 	   46.0000 	   25.6581
    5.1652 	   42.8885 	   23.0000 	   46.0000 	   25.8231
    5.0431 	   42.9685 	   23.0000 	   46.0000 	   25.9831
    5.2110 	   43.0675 	   23.0000 	   46.0000 	   26.1811
    4.9210 	   43.1455 	   23.0000 	   46.0000 	   26.3371
    5.2720 	   43.2205 	   23.0000 	   46.0000 	   26.4872
    5.1499 	   43.3000 	   23.0000 	   46.0000 	   26.6462
    5.2415 	   43.3830 	   23.0000 	   46.0000 	   26.8122
    5.2567 	   43.4665 	   23.0000 	   46.0000 	   26.9792
    5.2415 	   43.5465 	   23.0000 	   46.0000 	   27.1392
    5.2567 	   43.6275 	   23.0000 	   46.0000 	   27.3012
    5.3330 	   43.7090 	   23.0000 	   46.0000 	   27.4642
    5.4246 	   43.7905 	   23.0000 	   46.0000 	   27.6272
    5.2567 	   43.8725 	   23.0000 	   46.0000 	   27.7902
    5.2720 	   43.9550 	   23.0000 	   46.0000 	   27.9562
    5.2262 	   44.0385 	   23.0000 	   46.0000 	   28.1232
    5.2720 	   44.1220 	   23.0000 	   46.0000 	   28.2903
    5.3941 	   44.2060 	   23.0000 	   46.0000 	   28.4583
    5.3941 	   44.2870 	   23.0000 	   46.0000 	   28.6203
    5.5619 	   44.3695 	   23.0000 	   46.0000 	   28.7853
    5.3178 	   44.4520 	   23.0000 	   46.0000 	   28.9503
    5.3330 	   44.5315 	   23.0000 	   46.0000 	   29.1093
    5.5924 	   44.6135 	   23.0000 	   46.0000 	   29.2733
    5.4093 	   44.6945 	   23.0000 	   46.0000 	   29.4343
    5.3941 	   44.7730 	   23.0000 	   46.0000 	   29.5923
    5.4398 	   44.8525 	   23.0000 	   46.0000 	   29.7513
    5.5009 	   44.9345 	   23.0000 	   46.0000 	   29.9153
    5.5314 	   45.0175 	   23.0000 	   46.0000 	   30.0804
    5.3178 	   45.1020 	   23.0000 	   46.0000 	   30.2504
    5.5314 	   45.1850 	   23.0000 	   46.0000 	   30.4164
    5.3788 	   45.2670 	   23.0000 	   46.0000 	   30.5804
    5.4856 	   45.3485 	   23.0000 	   46.0000 	   30.7434
    5.5619 	   45.4295 	   23.0000 	   46.0000 	   30.9054
    5.5772 	   45.5100 	   23.0000 	   46.0000 	   31.0664
    5.5161 	   45.5910 	   23.0000 	   46.0000 	   31.2284
    5.6229 	   45.6725 	   23.0000 	   46.0000 	   31.3914
    5.5161 	   45.7535 	   23.0000 	   46.0000 	   31.5534
    5.5467 	   45.8350 	   23.0000 	   46.0000 	   31.7164
    5.7603 	   45.9165 	   23.0000 	   46.0000 	   31.8795
    5.7298 	   45.9970 	   23.0000 	   46.0000 	   32.0405
    5.5924 	   46.0810 	   23.0000 	   46.0000 	   32.2085
    5.6382 	   46.1630 	   23.0000 	   46.0000 	   32.3725
    5.6077 	   46.2430 	   23.0000 	   46.0000 	   32.5325
    5.7603 	   46.3210 	   23.0000 	   46.0000 	   32.6885
    5.7603 	   46.3970 	   23.0000 	   46.0000 	   32.8405
    5.6535 	   46.4715 	   23.0000 	   46.0000 	   32.9895
    5.7603 	   46.5450 	   23.0000 	   46.0000 	   33.1365
    5.7755 	   46.6230 	   23.0000 	   46.0000 	   33.2925
    5.7603 	   46.7030 	   23.0000 	   46.0000 	   33.4525
    5.8366 	   46.7860 	   23.0000 	   46.0000 	   33.6186
    5.7908 	   46.8690 	   23.0000 	   46.0000 	   33.7846
    5.7755 	   46.9510 	   23.0000 	   46.0000 	   33.9486
    5.9739 	   47.0330 	   23.0000 	   46.0000 	   34.1126
    5.7755 	   47.1160 	   23.0000 	   46.0000 	   34.2786
    5.8824 	   47.1990 	   23.0000 	   46.0000 	   34.4446
    5.8061 	   47.2815 	   23.0000 	   46.0000 	   34.6096
    5.8671 	   47.3655 	   23.0000 	   46.0000 	   34.7776
    5.7603 	   47.4485 	   23.0000 	   46.0000 	   34.9436
    5.9281 	   47.5295 	   23.0000 	   46.0000 	   35.1056
    6.0044 	   47.6125 	   23.0000 	   46.0000 	   35.2717
    5.9281 	   47.6960 	   23.0000 	   46.0000 	   35.4387
    5.9281 	   47.7790 	   23.0000 	   46.0000 	   35.6047
    5.9892 	   47.8705 	   23.0000 	   46.0000 	   35.7877
    5.8366 	   47.9550 	   23.0000 	   46.0000 	   35.9567
    6.0197 	   48.0380 	   23.0000 	   46.0000 	   36.1227
    6.0349 	   48.1215 	   23.0000 	   46.0000 	   36.2897
    5.9281 	   48.2035 	   23.0000 	   46.0000 	   36.4537
    6.1112 	   48.2800 	   23.0000 	   46.0000 	   36.6067
    6.0197 	   48.3615 	   23.0000 	   46.0000 	   36.7697
    6.2333 	   48.4445 	   23.0000 	   46.0000 	   36.9357
    6.1418 	   48.5280 	   23.0000 	   46.0000 	   37.1028
    6.1112 	   48.6135 	   23.0000 	   46.0000 	   37.2738
    6.0197 	   48.6965 	   23.0000 	   46.0000 	   37.4398
    6.1418 	   48.7760 	   23.0000 	   46.0000 	   37.5988
    6.0197 	   48.8590 	   23.0000 	   46.0000 	   37.7648
    6.0349 	   48.9420 	   23.0000 	   46.0000 	   37.9308
    6.1875 	   49.0255 	   23.0000 	   46.0000 	   38.0978
    6.0960 	   49.1095 	   23.0000 	   46.0000 	   38.2658
    6.1418 	   49.1935 	   23.0000 	   46.0000 	   38.4338
    6.2333 	   49.2710 	   23.0000 	   46.0000 	   38.5888
    6.1570 	   49.3470 	   23.0000 	   46.0000 	   38.7409
    6.2638 	   49.4315 	   23.0000 	   46.0000 	   38.9099
    6.2333 	   49.5130 	   23.0000 	   46.0000 	   39.0729
    6.2486 	   49.5960 	   23.0000 	   46.0000 	   39.2389
    6.3554 	   49.6805 	   23.0000 	   46.0000 	   39.4079
    6.2333 	   49.7630 	   23.0000 	   46.0000 	   39.5729
    6.1723 	   49.8485 	   23.0000 	   46.0000 	   39.7439
    5.9434 	   49.9310 	   23.0000 	   46.0000 	   39.9089
    6.3096 	   50.0145 	   23.0000 	   46.0000 	   40.0759
    6.3249 	   50.0970 	   23.0000 	   46.0000 	   40.2409
    6.4622 	   50.1795 	   23.0000 	   46.0000 	   40.4059
    6.4775 	   50.2630 	   23.0000 	   46.0000 	   40.5730
    6.4775 	   50.3485 	   23.0000 	   46.0000 	   40.7440
    6.3859 	   50.4330 	   23.0000 	   46.0000 	   40.9130
    6.2791 	   50.5155 	   23.0000 	   46.0000 	   41.0780
    6.4927 	   50.5935 	   23.0000 	   46.0000 	   41.2340
    6.3401 	   50.6760 	   23.0000 	   46.0000 	   41.3990
    6.4927 	   50.7595 	   23.0000 	   46.0000 	   41.5660
    6.5385 	   50.8480 	   23.0000 	   46.0000 	   41.7430
    6.6300 	   50.9355 	   23.0000 	   46.0000 	   41.9180
    6.6300 	   51.0195 	   23.0000 	   46.0000 	   42.0860
    6.4775 	   51.1000 	   23.0000 	   46.0000 	   42.2471
    6.5690 	   51.1770 	   23.0000 	   46.0000 	   42.4011
    6.7674 	   51.2570 	   23.0000 	   46.0000 	   42.5611
    6.5690 	   51.3395 	   23.0000 	   46.0000 	   42.7261
    6.5080 	   51.4215 	   23.0000 	   46.0000 	   42.8901
    6.6911 	   51.5055 	   23.0000 	   46.0000 	   43.0571
    6.6148 	   51.5905 	   23.0000 	   46.0000 	   43.2271
    6.7216 	   51.6745 	   23.0000 	   46.0000 	   43.3951
    6.6453 	   51.7600 	   23.0000 	   46.0000 	   43.5661
    6.6911 	   51.8495 	   23.0000 	   46.0000 	   43.7451
    6.8742 	   51.9325 	   23.0000 	   46.0000 	   43.9111
    6.6148 	   52.0185 	   23.0000 	   46.0000 	   44.0832
    6.6606 	   52.1050 	   23.0000 	   46.0000 	   44.2562
    6.7979 	   52.1880 	   23.0000 	   46.0000 	   44.4222
    6.7063 	   52.2715 	   23.0000 	   46.0000 	   44.5892
    6.5385 	   52.3560 	   23.0000 	   46.0000 	   44.7582
    6.6606 	   52.4390 	   23.0000 	   46.0000 	   44.9242
    6.9047 	   52.5235 	   23.0000 	   46.0000 	   45.0932
    6.9047 	   52.6060 	   23.0000 	   46.0000 	   45.2582
    6.8437 	   52.6885 	   23.0000 	   46.0000 	   45.4232
    6.9200 	   52.7685 	   23.0000 	   46.0000 	   45.5832
    6.8894 	   52.8490 	   23.0000 	   46.0000 	   45.7443
    6.6758 	   52.9325 	   23.0000 	   46.0000 	   45.9113
    6.9810 	   53.0165 	   23.0000 	   46.0000 	   46.0793
    6.9963 	   53.0985 	   23.0000 	   46.0000 	   46.2433
    6.8894 	   53.1840 	   23.0000 	   46.0000 	   46.4143
    6.9352 	   53.2620 	   23.0000 	   46.0000 	   46.5703
    6.9200 	   53.3425 	   23.0000 	   46.0000 	   46.7313
    7.0268 	   53.4260 	   23.0000 	   46.0000 	   46.8983
    7.0726 	   53.5105 	   23.0000 	   46.0000 	   47.0673
    7.0878 	   53.5950 	   23.0000 	   46.0000 	   47.2363
    6.8589 	   53.6785 	   23.0000 	   46.0000 	   47.4033
    6.7369 	   53.7645 	   23.0000 	   46.0000 	   47.5754
    6.9352 	   53.8480 	   23.0000 	   46.0000 	   47.7424
    7.0878 	   53.9290 	   23.0000 	   46.0000 	   47.9044
    7.0115 	   54.0080 	   23.0000 	   46.0000 	   48.0624
    7.3167 	   54.0860 	   23.0000 	   46.0000 	   48.2184
    7.3777 	   54.1635 	   23.0000 	   46.0000 	   48.3734
    7.2404 	   54.2400 	   23.0000 	   46.0000 	   48.5264
    7.2099 	   54.3205 	   23.0000 	   46.0000 	   48.6874
    7.1946 	   54.4055 	   23.0000 	   46.0000 	   48.8574
    7.2099 	   54.4925 	   23.0000 	   46.0000 	   49.0314
    7.2251 	   54.5775 	   23.0000 	   46.0000 	   49.2015
    6.9963 	   54.6615 	   23.0000 	   46.0000 	   49.3695
    7.2099 	   54.7475 	   23.0000 	   46.0000 	   49.5415
    7.4845 	   54.8325 	   23.0000 	   46.0000 	   49.7115
    7.4388 	   54.9165 	   23.0000 	   46.0000 	   49.8795
    7.5456 	   55.0010 	   23.0000 	   46.0000 	   50.0485
    7.5456 	   55.0890 	   23.0000 	   46.0000 	   50.2245
    7.4998 	   55.1745 	   23.0000 	   46.0000 	   50.3955
    7.3930 	   55.2595 	   23.0000 	   46.0000 	   50.5655
    7.4693 	   55.3445 	   23.0000 	   46.0000 	   50.7355
    7.4998 	   55.4280 	   23.0000 	   46.0000 	   50.9025
    7.5456 	   55.5110 	   23.0000 	   46.0000 	   51.0686
    7.5151 	   55.5870 	   23.0000 	   46.0000 	   51.2206
    7.4540 	   55.6630 	   23.0000 	   46.0000 	   51.3726
    7.6371 	   55.7390 	   23.0000 	   46.0000 	   51.5246
    7.6524 	   55.8225 	   23.0000 	   46.0000 	   51.6916
    7.7287 	   55.9015 	   23.0000 	   46.0000 	   51.8496
    7.6066 	   55.9820 	   23.0000 	   46.0000 	   52.0106
    7.6371 	   56.0670 	   23.0000 	   46.0000 	   52.1806
    7.7134 	   56.1450 	   23.0000 	   46.0000 	   52.3366
    7.7287 	   56.2205 	   23.0000 	   46.0000 	   52.4876
    7.7745 	   56.3015 	   23.0000 	   46.0000 	   52.6496
    7.8050 	   56.3845 	   23.0000 	   46.0000 	   52.8157
    7.7745 	   56.4615 	   23.0000 	   46.0000 	   52.9697
    7.9118 	   56.5380 	   23.0000 	   46.0000 	   53.1227
    7.8813 	   56.6135 	   23.0000 	   46.0000 	   53.2737
    7.7897 	   56.6900 	   23.0000 	   46.0000 	   53.4267
    7.9728 	   56.7675 	   23.0000 	   46.0000 	   53.5817
    7.9576 	   56.8460 	   23.0000 	   46.0000 	   53.7387
    7.8508 	   56.9265 	   23.0000 	   46.0000 	   53.8997
    8.0797 	   57.0050 	   23.0000 	   46.0000 	   54.0567
    7.9881 	   57.0870 	   23.0000 	   46.0000 	   54.2207
    8.1407 	   57.1645 	   23.0000 	   46.0000 	   54.3757
    8.1407 	   57.2490 	   23.0000 	   46.0000 	   54.5448
    8.1102 	   57.3260 	   23.0000 	   46.0000 	   54.6988
    8.1407 	   57.4020 	   23.0000 	   46.0000 	   54.8508
    8.0797 	   57.4805 	   23.0000 	   46.0000 	   55.0078
    8.2628 	   57.5650 	   23.0000 	   46.0000 	   55.1768
    7.8813 	   57.6460 	   23.0000 	   46.0000 	   55.3388
    8.2780 	   57.7220 	   23.0000 	   46.0000 	   55.4908
    8.1102 	   57.8060 	   23.0000 	   46.0000 	   55.6588
    8.3848 	   57.8875 	   23.0000 	   46.0000 	   55.8218
    8.3085 	   57.9635 	   23.0000 	   46.0000 	   55.9738
    8.2170 	   58.0615 	   23.0000 	   46.0000 	   56.1698
    8.3391 	   58.1425 	   23.0000 	   46.0000 	   56.3319
    8.3238 	   58.2295 	   23.0000 	   46.0000 	   56.5059
    8.4306 	   58.3135 	   23.0000 	   46.0000 	   56.6739
    8.4611 	   58.3990 	   23.0000 	   46.0000 	   56.8449
    8.3543 	   58.4855 	   23.0000 	   46.0000 	   57.0179
    8.5069 	   58.5715 	   23.0000 	   46.0000 	   57.1899
    8.4764 	   58.6570 	   23.0000 	   46.0000 	   57.3609
    8.5069 	   58.7430 	   23.0000 	   46.0000 	   57.5329
    8.5679 	   58.8315 	   23.0000 	   46.0000 	   57.7099
    8.5222 	   58.9190 	   23.0000 	   46.0000 	   57.8849
    8.6900 	   59.0065 	   23.0000 	   46.0000 	   58.0600
    8.7510 	   59.0865 	   23.0000 	   46.0000 	   58.2200
    8.7358 	   59.1635 	   23.0000 	   46.0000 	   58.3740
    8.6442 	   59.2410 	   23.0000 	   46.0000 	   58.5290
    8.7205 	   59.3205 	   23.0000 	   46.0000 	   58.6880
    8.7968 	   59.4010 	   23.0000 	   46.0000 	   58.8490
    8.9036 	   59.4790 	   23.0000 	   46.0000 	   59.0050
    8.8579 	   59.5560 	   23.0000 	   46.0000 	   59.1590
    8.8426 	   59.6375 	   23.0000 	   46.0000 	   59.3220
    8.8731 	   59.7160 	   23.0000 	   46.0000 	   59.4790
    8.9036 	   59.8055 	   23.0000 	   46.0000 	   59.6580
    8.8884 	   59.8875 	   23.0000 	   46.0000 	   59.8221
    8.9952 	   59.9660 	   23.0000 	   46.0000 	   59.9791
    8.9494 	   60.0470 	   23.0000 	   47.0000 	    0.1411
    8.9647 	   60.0855 	   23.0000 	   47.0000 	    0.2181