File: instron/deadline/hysteresis/bare_20_1/bare_20_1_60_120.txt
Thayer School of Engineering        Instron 4442 Mechanical Testing System
7/9/2018 3:05:53 AM

  Force (N)	Extension (mm)	Not Used	Not Used	Not Used	     Hour	    Minute	    Second
    0.4654 	    2.0620 	    3.0000 	    6.0000 	   13.2518
    0.2823 	    2.2620 	    3.0000 	    6.0000 	   13.3518
    0.3738 	    2.4480 	    3.0000 	    6.0000 	   13.4448
    0.3891 	    2.6540 	    3.0000 	    6.0000 	   13.5478
    0.0839 	    2.7680 	    3.0000 	    6.0000 	   13.6048
    0.3738 	    2.9720 	    3.0000 	    6.0000 	   13.7068
    0.2823 	    3.1780 	    3.0000 	    6.0000 	   13.8098
    0.4349 	    3.3520 	    3.0000 	    6.0000 	   13.8968
    0.5722 	    3.5660 	    3.0000 	    6.0000 	   14.0038
    0.3433 	    3.7700 	    3.0000 	    6.0000 	   14.1058
    0.5264 	    3.9340 	    3.0000 	    6.0000 	   14.1878
    0.4044 	    4.1540 	    3.0000 	    6.0000 	   14.2978
    0.3891 	    4.3640 	    3.0000 	    6.0000 	   14.4028
    0.2823 	    4.4820 	    3.0000 	    6.0000 	   14.4618
    0.4196 	    4.6440 	    3.0000 	    6.0000 	   14.5428
    0.3891 	    4.8060 	    3.0000 	    6.0000 	   14.6238
    0.4044 	    5.0260 	    3.0000 	    6.0000 	   14.7338
    0.4196 	    5.1560 	    3.0000 	    6.0000 	   14.7988
    0.4807 	    5.3760 	    3.0000 	    6.0000 	   14.9088
    0.3891 	    5.5640 	    3.0000 	    6.0000 	   15.0029
    0.3281 	    5.7720 	    3.0000 	    6.0000 	   15.1069
    0.1755 	    5.9940 	    3.0000 	    6.0000 	   15.2179
    0.2213 	    6.1580 	    3.0000 	    6.0000 	   15.2999
    0.2670 	    6.3740 	    3.0000 	    6.0000 	   15.4079
    0.3128 	    6.5540 	    3.0000 	    6.0000 	   15.4979
    0.3738 	    6.6600 	    3.0000 	    6.0000 	   15.5509
    0.2976 	    6.7900 	    3.0000 	    6.0000 	   15.6159
    0.3433 	    6.9300 	    3.0000 	    6.0000 	   15.6859
    0.4654 	    7.0560 	    3.0000 	    6.0000 	   15.7489
    0.4044 	    7.1860 	    3.0000 	    6.0000 	   15.8139
    0.4044 	    7.3140 	    3.0000 	    6.0000 	   15.8779
    0.3281 	    7.4440 	    3.0000 	    6.0000 	   15.9429
    0.4807 	    7.5680 	    3.0000 	    6.0000 	   16.0049
    0.3891 	    7.6960 	    3.0000 	    6.0000 	   16.0689
    0.3891 	    7.8260 	    3.0000 	    6.0000 	   16.1339
    0.3586 	    7.9600 	    3.0000 	    6.0000 	   16.2009
    0.4044 	    8.0920 	    3.0000 	    6.0000 	   16.2669
    0.3433 	    8.2240 	    3.0000 	    6.0000 	   16.3329
    0.4654 	    8.3500 	    3.0000 	    6.0000 	   16.3959
    0.5112 	    8.4680 	    3.0000 	    6.0000 	   16.4549
    0.3586 	    8.5780 	    3.0000 	    6.0000 	   16.5099
    0.4959 	    8.7320 	    3.0000 	    6.0000 	   16.5869
    0.4196 	    8.8460 	    3.0000 	    6.0000 	   16.6439
    0.3738 	    8.9540 	    3.0000 	    6.0000 	   16.6980
    0.4654 	    9.0560 	    3.0000 	    6.0000 	   16.7490
    0.3891 	    9.1620 	    3.0000 	    6.0000 	   16.8020
    0.5722 	    9.2880 	    3.0000 	    6.0000 	   16.8650
    0.3891 	    9.4080 	    3.0000 	    6.0000 	   16.9250
    0.5722 	    9.5280 	    3.0000 	    6.0000 	   16.9850
    0.3738 	    9.6500 	    3.0000 	    6.0000 	   17.0460
    0.2976 	    9.7700 	    3.0000 	    6.0000 	   17.1060
    0.3738 	    9.8920 	    3.0000 	    6.0000 	   17.1670
    0.3586 	   10.0240 	    3.0000 	    6.0000 	   17.2330
    0.4501 	   10.1600 	    3.0000 	    6.0000 	   17.3010
    0.4501 	   10.2820 	    3.0000 	    6.0000 	   17.3620
    0.3891 	   10.3900 	    3.0000 	    6.0000 	   17.4160
    0.4959 	   10.5040 	    3.0000 	    6.0000 	   17.4730
    0.3738 	   10.6120 	    3.0000 	    6.0000 	   17.5270
    0.4807 	   10.7260 	    3.0000 	    6.0000 	   17.5840
    0.3891 	   10.8460 	    3.0000 	    6.0000 	   17.6440
    0.4044 	   10.9740 	    3.0000 	    6.0000 	   17.7080
    0.2976 	   11.0920 	    3.0000 	    6.0000 	   17.7670
    0.5417 	   11.2220 	    3.0000 	    6.0000 	   17.8310
    0.4959 	   11.3420 	    3.0000 	    6.0000 	   17.8910
    0.5264 	   11.4620 	    3.0000 	    6.0000 	   17.9510
    0.4196 	   11.5940 	    3.0000 	    6.0000 	   18.0170
    0.5264 	   11.7180 	    3.0000 	    6.0000 	   18.0790
    0.3738 	   11.8400 	    3.0000 	    6.0000 	   18.1400
    0.4349 	   11.9680 	    3.0000 	    6.0000 	   18.2040
    0.3738 	   12.0940 	    3.0000 	    6.0000 	   18.2670
    0.5875 	   12.2240 	    3.0000 	    6.0000 	   18.3320
    0.4044 	   12.3420 	    3.0000 	    6.0000 	   18.3910
    0.4959 	   12.4500 	    3.0000 	    6.0000 	   18.4451
    0.4959 	   12.5580 	    3.0000 	    6.0000 	   18.4991
    0.5417 	   12.6600 	    3.0000 	    6.0000 	   18.5501
    0.3586 	   12.8300 	    3.0000 	    6.0000 	   18.6351
    0.5264 	   12.9680 	    3.0000 	    6.0000 	   18.7041
    0.6180 	   13.0960 	    3.0000 	    6.0000 	   18.7681
    0.4807 	   13.2260 	    3.0000 	    6.0000 	   18.8331
    0.5875 	   13.3600 	    3.0000 	    6.0000 	   18.9001
    0.4349 	   13.4920 	    3.0000 	    6.0000 	   18.9661
    0.5570 	   13.6280 	    3.0000 	    6.0000 	   19.0341
    0.2060 	   13.7580 	    3.0000 	    6.0000 	   19.0991
    0.1297 	   13.8860 	    3.0000 	    6.0000 	   19.1631
    0.5112 	   14.0200 	    3.0000 	    6.0000 	   19.2301
    0.3586 	   14.1480 	    3.0000 	    6.0000 	   19.2941
    0.4349 	   14.2600 	    3.0000 	    6.0000 	   19.3501
    0.2670 	   14.3840 	    3.0000 	    6.0000 	   19.4121
    0.4959 	   14.4940 	    3.0000 	    6.0000 	   19.4671
    0.4044 	   14.6080 	    3.0000 	    6.0000 	   19.5241
    0.4349 	   14.7180 	    3.0000 	    6.0000 	   19.5791
    0.5112 	   14.8380 	    3.0000 	    6.0000 	   19.6391
    0.5112 	   14.9760 	    3.0000 	    6.0000 	   19.7081
    0.5417 	   15.0960 	    3.0000 	    6.0000 	   19.7681
    0.5112 	   15.2300 	    3.0000 	    6.0000 	   19.8351
    0.5264 	   15.3600 	    3.0000 	    6.0000 	   19.9001
    0.6638 	   15.5020 	    3.0000 	    6.0000 	   19.9711
    0.5264 	   15.6340 	    3.0000 	    6.0000 	   20.0371
    0.4501 	   15.7620 	    3.0000 	    6.0000 	   20.1011
    0.4501 	   15.8920 	    3.0000 	    6.0000 	   20.1661
    0.3586 	   16.0240 	    3.0000 	    6.0000 	   20.2322
    0.4807 	   16.1540 	    3.0000 	    6.0000 	   20.2972
    0.4044 	   16.2720 	    3.0000 	    6.0000 	   20.3562
    0.5570 	   16.3960 	    3.0000 	    6.0000 	   20.4182
    0.5264 	   16.5060 	    3.0000 	    6.0000 	   20.4732
    0.3433 	   16.6240 	    3.0000 	    6.0000 	   20.5322
    0.2823 	   16.7360 	    3.0000 	    6.0000 	   20.5882
    0.4959 	   16.8460 	    3.0000 	    6.0000 	   20.6432
    0.4349 	   16.9720 	    3.0000 	    6.0000 	   20.7062
    0.0992 	   17.0800 	    3.0000 	    6.0000 	   20.7602
    0.5417 	   17.1960 	    3.0000 	    6.0000 	   20.8182
    0.4349 	   17.3080 	    3.0000 	    6.0000 	   20.8742
    0.5570 	   17.4380 	    3.0000 	    6.0000 	   20.9392
    0.4654 	   17.5500 	    3.0000 	    6.0000 	   20.9952
    0.5570 	   17.6680 	    3.0000 	    6.0000 	   21.0542
    0.5570 	   17.7840 	    3.0000 	    6.0000 	   21.1122
    0.6332 	   17.9000 	    3.0000 	    6.0000 	   21.1702
    0.5875 	   18.0080 	    3.0000 	    6.0000 	   21.2242
    0.4807 	   18.1340 	    3.0000 	    6.0000 	   21.2872
    0.3433 	   18.2620 	    3.0000 	    6.0000 	   21.3512
    0.4959 	   18.3840 	    3.0000 	    6.0000 	   21.4122
    0.3738 	   18.4940 	    3.0000 	    6.0000 	   21.4672
    0.5264 	   18.6020 	    3.0000 	    6.0000 	   21.5212
    0.3891 	   18.7280 	    3.0000 	    6.0000 	   21.5842
    0.5570 	   18.8340 	    3.0000 	    6.0000 	   21.6372
    0.0992 	   18.9560 	    3.0000 	    6.0000 	   21.6982
    0.4807 	   19.0720 	    3.0000 	    6.0000 	   21.7562
    0.4959 	   19.1980 	    3.0000 	    6.0000 	   21.8192
    0.5417 	   19.3260 	    3.0000 	    6.0000 	   21.8832
    0.4044 	   19.4480 	    3.0000 	    6.0000 	   21.9443
    0.4349 	   19.5580 	    3.0000 	    6.0000 	   21.9993
    0.4196 	   19.6740 	    3.0000 	    6.0000 	   22.0573
    0.4044 	   19.7840 	    3.0000 	    6.0000 	   22.1123
    0.4959 	   19.8940 	    3.0000 	    6.0000 	   22.1673
    0.4196 	   20.0080 	    3.0000 	    6.0000 	   22.2243
    0.5570 	   20.1240 	    3.0000 	    6.0000 	   22.2823
    0.6027 	   20.2340 	    3.0000 	    6.0000 	   22.3373
    0.5570 	   20.3420 	    3.0000 	    6.0000 	   22.3913
    0.5417 	   20.4560 	    3.0000 	    6.0000 	   22.4483
    0.5112 	   20.5640 	    3.0000 	    6.0000 	   22.5023
    0.5875 	   20.6840 	    3.0000 	    6.0000 	   22.5623
    0.5417 	   20.7860 	    3.0000 	    6.0000 	   22.6133
    0.4654 	   20.9060 	    3.0000 	    6.0000 	   22.6733
    0.3586 	   21.0380 	    3.0000 	    6.0000 	   22.7393
    0.7095 	   21.1640 	    3.0000 	    6.0000 	   22.8023
    0.5264 	   21.2980 	    3.0000 	    6.0000 	   22.8693
    0.5722 	   21.4260 	    3.0000 	    6.0000 	   22.9333
    0.4349 	   21.5600 	    3.0000 	    6.0000 	   23.0003
    0.5875 	   21.6980 	    3.0000 	    6.0000 	   23.0693
    0.4959 	   21.8240 	    3.0000 	    6.0000 	   23.1323
    0.4196 	   21.9620 	    3.0000 	    6.0000 	   23.2013
    0.5417 	   22.0920 	    3.0000 	    6.0000 	   23.2663
    0.3128 	   22.2280 	    3.0000 	    6.0000 	   23.3343
    0.4044 	   22.3520 	    3.0000 	    6.0000 	   23.3963
    0.5112 	   22.4680 	    3.0000 	    6.0000 	   23.4543
    0.5112 	   22.5820 	    3.0000 	    6.0000 	   23.5113
    0.5112 	   22.7020 	    3.0000 	    6.0000 	   23.5713
    0.5722 	   22.8140 	    3.0000 	    6.0000 	   23.6273
    0.4196 	   22.9360 	    3.0000 	    6.0000 	   23.6884
    0.5112 	   23.0660 	    3.0000 	    6.0000 	   23.7534
    0.4044 	   23.2040 	    3.0000 	    6.0000 	   23.8224
    0.3586 	   23.3340 	    3.0000 	    6.0000 	   23.8874
    0.5570 	   23.4600 	    3.0000 	    6.0000 	   23.9504
    0.8011 	   23.5940 	    3.0000 	    6.0000 	   24.0174
    0.4501 	   23.7380 	    3.0000 	    6.0000 	   24.0894
    0.4044 	   23.8700 	    3.0000 	    6.0000 	   24.1554
    0.4807 	   24.0020 	    3.0000 	    6.0000 	   24.2214
    0.5722 	   24.1360 	    3.0000 	    6.0000 	   24.2884
    0.5264 	   24.2680 	    3.0000 	    6.0000 	   24.3544
    0.4654 	   24.3860 	    3.0000 	    6.0000 	   24.4134
    0.4349 	   24.5020 	    3.0000 	    6.0000 	   24.4714
    0.5875 	   24.6260 	    3.0000 	    6.0000 	   24.5334
    0.5264 	   24.7340 	    3.0000 	    6.0000 	   24.5874
    0.4349 	   24.8520 	    3.0000 	    6.0000 	   24.6464
    0.4501 	   24.9780 	    3.0000 	    6.0000 	   24.7094
    0.4654 	   25.1040 	    3.0000 	    6.0000 	   24.7724
    0.4349 	   25.2360 	    3.0000 	    6.0000 	   24.8384
    0.5264 	   25.3660 	    3.0000 	    6.0000 	   24.9034
    0.3738 	   25.4960 	    3.0000 	    6.0000 	   24.9684
    0.5875 	   25.6280 	    3.0000 	    6.0000 	   25.0344
    0.4196 	   25.7620 	    3.0000 	    6.0000 	   25.1014
    0.6638 	   25.8940 	    3.0000 	    6.0000 	   25.1674
    0.4807 	   26.0300 	    3.0000 	    6.0000 	   25.2354
    0.4501 	   26.1680 	    3.0000 	    6.0000 	   25.3044
    0.4654 	   26.2960 	    3.0000 	    6.0000 	   25.3684
    0.6485 	   26.4180 	    3.0000 	    6.0000 	   25.4295
    0.6180 	   26.5320 	    3.0000 	    6.0000 	   25.4865
    0.5264 	   26.6520 	    3.0000 	    6.0000 	   25.5465
    0.4959 	   26.7600 	    3.0000 	    6.0000 	   25.6005
    0.6027 	   26.8740 	    3.0000 	    6.0000 	   25.6575
    0.5264 	   27.0060 	    3.0000 	    6.0000 	   25.7235
    0.6943 	   27.1460 	    3.0000 	    6.0000 	   25.7935
    0.2670 	   27.2720 	    3.0000 	    6.0000 	   25.8565
    0.4349 	   27.4040 	    3.0000 	    6.0000 	   25.9225
    0.5264 	   27.5320 	    3.0000 	    6.0000 	   25.9865
    0.6943 	   27.6700 	    3.0000 	    6.0000 	   26.0555
    0.4501 	   27.7960 	    3.0000 	    6.0000 	   26.1185
    0.5875 	   27.9280 	    3.0000 	    6.0000 	   26.1835
    0.4501 	   28.0640 	    3.0000 	    6.0000 	   26.2525
    0.5112 	   28.2020 	    3.0000 	    6.0000 	   26.3215
    0.1602 	   28.3360 	    3.0000 	    6.0000 	   26.3885
    0.4044 	   28.4520 	    3.0000 	    6.0000 	   26.4465
    0.5570 	   28.5680 	    3.0000 	    6.0000 	   26.5045
    0.4654 	   28.6900 	    3.0000 	    6.0000 	   26.5645
    0.4654 	   28.7960 	    3.0000 	    6.0000 	   26.6185
    0.5417 	   28.9260 	    3.0000 	    6.0000 	   26.6835
    0.5722 	   29.0560 	    3.0000 	    6.0000 	   26.7485
    0.2518 	   29.1880 	    3.0000 	    6.0000 	   26.8145
    0.6790 	   29.3160 	    3.0000 	    6.0000 	   26.8785
    0.5875 	   29.4460 	    3.0000 	    6.0000 	   26.9435
    0.4349 	   29.5660 	    3.0000 	    6.0000 	   27.0035
    0.5722 	   29.7060 	    3.0000 	    6.0000 	   27.0735
    0.5570 	   29.8340 	    3.0000 	    6.0000 	   27.1375
    0.6943 	   29.9600 	    3.0000 	    6.0000 	   27.2006
    0.7095 	   30.0960 	    3.0000 	    6.0000 	   27.2686
    0.3738 	   30.2340 	    3.0000 	    6.0000 	   27.3376
    0.5570 	   30.3520 	    3.0000 	    6.0000 	   27.3966
    0.5112 	   30.4700 	    3.0000 	    6.0000 	   27.4556
    0.4807 	   30.5860 	    3.0000 	    6.0000 	   27.5136
    0.5722 	   30.7120 	    3.0000 	    6.0000 	   27.5766
    0.6332 	   30.8280 	    3.0000 	    6.0000 	   27.6346
    0.7248 	   30.9640 	    3.0000 	    6.0000 	   27.7026
    0.6180 	   31.0960 	    3.0000 	    6.0000 	   27.7686
    0.6332 	   31.2320 	    3.0000 	    6.0000 	   27.8366
    0.3433 	   31.3600 	    3.0000 	    6.0000 	   27.9006
    0.5875 	   31.4940 	    3.0000 	    6.0000 	   27.9676
    0.5417 	   31.6300 	    3.0000 	    6.0000 	   28.0356
    0.4501 	   31.7680 	    3.0000 	    6.0000 	   28.1046
    0.5264 	   31.8980 	    3.0000 	    6.0000 	   28.1696
    0.4654 	   32.0280 	    3.0000 	    6.0000 	   28.2346
    0.6332 	   32.1740 	    3.0000 	    6.0000 	   28.3076
    0.5112 	   32.3040 	    3.0000 	    6.0000 	   28.3726
    0.4501 	   32.4260 	    3.0000 	    6.0000 	   28.4336
    0.5417 	   32.5480 	    3.0000 	    6.0000 	   28.4946
    0.6180 	   32.6740 	    3.0000 	    6.0000 	   28.5576
    0.4807 	   32.7880 	    3.0000 	    6.0000 	   28.6146
    0.4959 	   32.9080 	    3.0000 	    6.0000 	   28.6746
    0.6332 	   33.0400 	    3.0000 	    6.0000 	   28.7406
    0.5417 	   33.1760 	    3.0000 	    6.0000 	   28.8086
    0.5417 	   33.3120 	    3.0000 	    6.0000 	   28.8766
    0.8011 	   33.4420 	    3.0000 	    6.0000 	   28.9417
    0.4807 	   33.5740 	    3.0000 	    6.0000 	   29.0077
    0.5264 	   33.7120 	    3.0000 	    6.0000 	   29.0767
    0.6790 	   33.8480 	    3.0000 	    6.0000 	   29.1447
    0.5722 	   33.9800 	    3.0000 	    6.0000 	   29.2107
    0.4044 	   34.1120 	    3.0000 	    6.0000 	   29.2767
    0.6638 	   34.2580 	    3.0000 	    6.0000 	   29.3497
    0.6180 	   34.3820 	    3.0000 	    6.0000 	   29.4117
    0.5417 	   34.5060 	    3.0000 	    6.0000 	   29.4737
    0.6027 	   34.6320 	    3.0000 	    6.0000 	   29.5367
    0.5570 	   34.7500 	    3.0000 	    6.0000 	   29.5957
    0.3586 	   34.8600 	    3.0000 	    6.0000 	   29.6507
    0.3891 	   34.9860 	    3.0000 	    6.0000 	   29.7137
    0.6180 	   35.1180 	    3.0000 	    6.0000 	   29.7797
    0.6943 	   35.2520 	    3.0000 	    6.0000 	   29.8467
    0.6332 	   35.3820 	    3.0000 	    6.0000 	   29.9117
    0.6332 	   35.5180 	    3.0000 	    6.0000 	   29.9797
    0.5264 	   35.6540 	    3.0000 	    6.0000 	   30.0477
    0.5722 	   35.7800 	    3.0000 	    6.0000 	   30.1107
    0.6027 	   35.9120 	    3.0000 	    6.0000 	   30.1767
    0.5722 	   36.0460 	    3.0000 	    6.0000 	   30.2437
    0.5417 	   36.1880 	    3.0000 	    6.0000 	   30.3147
    0.6027 	   36.3160 	    3.0000 	    6.0000 	   30.3787
    0.5417 	   36.4400 	    3.0000 	    6.0000 	   30.4407
    0.5570 	   36.5600 	    3.0000 	    6.0000 	   30.5007
    0.3281 	   36.6820 	    3.0000 	    6.0000 	   30.5617
    0.5875 	   36.8020 	    3.0000 	    6.0000 	   30.6217
    0.4654 	   36.9180 	    3.0000 	    6.0000 	   30.6798
    0.6485 	   37.0480 	    3.0000 	    6.0000 	   30.7448
    0.7401 	   37.1840 	    3.0000 	    6.0000 	   30.8128
    0.4959 	   37.3040 	    3.0000 	    6.0000 	   30.8728
    0.6943 	   37.4200 	    3.0000 	    6.0000 	   30.9308
    0.4196 	   37.5420 	    3.0000 	    6.0000 	   30.9918
    0.7858 	   37.6640 	    3.0000 	    6.0000 	   31.0528
    0.7248 	   37.7920 	    3.0000 	    6.0000 	   31.1168
    0.5417 	   37.9280 	    3.0000 	    6.0000 	   31.1848
    0.6027 	   38.0600 	    3.0000 	    6.0000 	   31.2508
    0.7095 	   38.2020 	    3.0000 	    6.0000 	   31.3218
    0.5570 	   38.3400 	    3.0000 	    6.0000 	   31.3908
    0.5112 	   38.4660 	    3.0000 	    6.0000 	   31.4538
    0.5417 	   38.5900 	    3.0000 	    6.0000 	   31.5158
    0.5417 	   38.7100 	    3.0000 	    6.0000 	   31.5758
    0.5722 	   38.8260 	    3.0000 	    6.0000 	   31.6338
    0.5264 	   38.9400 	    3.0000 	    6.0000 	   31.6908
    0.6943 	   39.0600 	    3.0000 	    6.0000 	   31.7508
    0.6638 	   39.1860 	    3.0000 	    6.0000 	   31.8138
    0.3281 	   39.3100 	    3.0000 	    6.0000 	   31.8758
    0.5875 	   39.4280 	    3.0000 	    6.0000 	   31.9348
    0.8316 	   39.5600 	    3.0000 	    6.0000 	   32.0008
    0.5112 	   39.6940 	    3.0000 	    6.0000 	   32.0678
    0.5417 	   39.8360 	    3.0000 	    6.0000 	   32.1388
    0.6638 	   39.9740 	    3.0000 	    6.0000 	   32.2078
    0.6943 	   40.1100 	    3.0000 	    6.0000 	   32.2758
    0.7553 	   40.2520 	    3.0000 	    6.0000 	   32.3468
    0.7095 	   40.3820 	    3.0000 	    6.0000 	   32.4118
    0.6638 	   40.5080 	    3.0000 	    6.0000 	   32.4749
    0.5875 	   40.6280 	    3.0000 	    6.0000 	   32.5349
    0.5264 	   40.7480 	    3.0000 	    6.0000 	   32.5949
    0.7401 	   40.8660 	    3.0000 	    6.0000 	   32.6539
    0.7248 	   40.9860 	    3.0000 	    6.0000 	   32.7139
    0.6485 	   41.1200 	    3.0000 	    6.0000 	   32.7809
    0.5112 	   41.2580 	    3.0000 	    6.0000 	   32.8499
    0.5417 	   41.3940 	    3.0000 	    6.0000 	   32.9179
    0.7248 	   41.5300 	    3.0000 	    6.0000 	   32.9859
    0.7401 	   41.6620 	    3.0000 	    6.0000 	   33.0519
    0.6027 	   41.8000 	    3.0000 	    6.0000 	   33.1209
    0.6180 	   41.9380 	    3.0000 	    6.0000 	   33.1899
    0.7401 	   42.0740 	    3.0000 	    6.0000 	   33.2579
    0.7401 	   42.2160 	    3.0000 	    6.0000 	   33.3289
    0.7553 	   42.3480 	    3.0000 	    6.0000 	   33.3949
    0.6180 	   42.4780 	    3.0000 	    6.0000 	   33.4599
    0.6638 	   42.6020 	    3.0000 	    6.0000 	   33.5219
    0.7401 	   42.7200 	    3.0000 	    6.0000 	   33.5809
    0.7095 	   42.8440 	    3.0000 	    6.0000 	   33.6429
    0.5112 	   42.9720 	    3.0000 	    6.0000 	   33.7069
    0.6638 	   43.1120 	    3.0000 	    6.0000 	   33.7769
    0.6790 	   43.2560 	    3.0000 	    6.0000 	   33.8489
    0.5417 	   43.3900 	    3.0000 	    6.0000 	   33.9159
    0.6027 	   43.5220 	    3.0000 	    6.0000 	   33.9819
    0.4654 	   43.6460 	    3.0000 	    6.0000 	   34.0439
    0.6332 	   43.7880 	    3.0000 	    6.0000 	   34.1149
    0.7248 	   43.9300 	    3.0000 	    6.0000 	   34.1860
    0.4501 	   44.0640 	    3.0000 	    6.0000 	   34.2530
    0.6180 	   44.2140 	    3.0000 	    6.0000 	   34.3280
    0.3738 	   44.3500 	    3.0000 	    6.0000 	   34.3960
    0.6332 	   44.4840 	    3.0000 	    6.0000 	   34.4630
    0.7248 	   44.6080 	    3.0000 	    6.0000 	   34.5250
    0.3891 	   44.7340 	    3.0000 	    6.0000 	   34.5880
    0.6332 	   44.8560 	    3.0000 	    6.0000 	   34.6490
    0.6790 	   44.9820 	    3.0000 	    6.0000 	   34.7120
    0.6790 	   45.1160 	    3.0000 	    6.0000 	   34.7790
    0.6485 	   45.2580 	    3.0000 	    6.0000 	   34.8500
    0.6180 	   45.3960 	    3.0000 	    6.0000 	   34.9190
    0.6485 	   45.5320 	    3.0000 	    6.0000 	   34.9870
    0.5264 	   45.6700 	    3.0000 	    6.0000 	   35.0560
    0.5570 	   45.8080 	    3.0000 	    6.0000 	   35.1250
    0.6027 	   45.9500 	    3.0000 	    6.0000 	   35.1960
    0.6790 	   46.0900 	    3.0000 	    6.0000 	   35.2660
    0.5264 	   46.2360 	    3.0000 	    6.0000 	   35.3380
    0.7401 	   46.3820 	    3.0000 	    6.0000 	   35.4110
    0.3738 	   46.5100 	    3.0000 	    6.0000 	   35.4750
    0.6180 	   46.6340 	    3.0000 	    6.0000 	   35.5370
    0.5112 	   46.7620 	    3.0000 	    6.0000 	   35.6010
    0.6180 	   46.8840 	    3.0000 	    6.0000 	   35.6620
    0.5875 	   47.0060 	    3.0000 	    6.0000 	   35.7230
    0.6180 	   47.1440 	    3.0000 	    6.0000 	   35.7920
    0.6485 	   47.2780 	    3.0000 	    6.0000 	   35.8590
    0.6332 	   47.4140 	    3.0000 	    6.0000 	   35.9271
    0.7401 	   47.5500 	    3.0000 	    6.0000 	   35.9951
    0.6485 	   47.6860 	    3.0000 	    6.0000 	   36.0631
    0.6790 	   47.8180 	    3.0000 	    6.0000 	   36.1291
    0.2823 	   47.9620 	    3.0000 	    6.0000 	   36.2011
    0.7095 	   48.1040 	    3.0000 	    6.0000 	   36.2721
    0.5417 	   48.2500 	    3.0000 	    6.0000 	   36.3451
    0.6943 	   48.3920 	    3.0000 	    6.0000 	   36.4161
    0.7706 	   48.5240 	    3.0000 	    6.0000 	   36.4821
    0.4196 	   48.6560 	    3.0000 	    6.0000 	   36.5481
    0.6180 	   48.7840 	    3.0000 	    6.0000 	   36.6121
    0.5875 	   48.9040 	    3.0000 	    6.0000 	   36.6711
    0.6638 	   49.0240 	    3.0000 	    6.0000 	   36.7321
    0.7706 	   49.1580 	    3.0000 	    6.0000 	   36.7991
    0.7095 	   49.2880 	    3.0000 	    6.0000 	   36.8641
    0.4654 	   49.4140 	    3.0000 	    6.0000 	   36.9271
    0.6332 	   49.5500 	    3.0000 	    6.0000 	   36.9951
    0.7095 	   49.6820 	    3.0000 	    6.0000 	   37.0611
    0.8316 	   49.8220 	    3.0000 	    6.0000 	   37.1311
    0.5417 	   49.9660 	    3.0000 	    6.0000 	   37.2031
    0.7401 	   50.1060 	    3.0000 	    6.0000 	   37.2731
    0.6485 	   50.2540 	    3.0000 	    6.0000 	   37.3461
    0.6638 	   50.3920 	    3.0000 	    6.0000 	   37.4161
    0.7248 	   50.5260 	    3.0000 	    6.0000 	   37.4831
    0.7095 	   50.6580 	    3.0000 	    6.0000 	   37.5491
    0.8774 	   50.7880 	    3.0000 	    6.0000 	   37.6141
    0.6485 	   50.9140 	    3.0000 	    6.0000 	   37.6772
    0.5570 	   51.0360 	    3.0000 	    6.0000 	   37.7382
    0.8621 	   51.1740 	    3.0000 	    6.0000 	   37.8072
    0.5570 	   51.3160 	    3.0000 	    6.0000 	   37.8782
    0.8164 	   51.4500 	    3.0000 	    6.0000 	   37.9452
    0.7248 	   51.5880 	    3.0000 	    6.0000 	   38.0142
    0.6943 	   51.7320 	    3.0000 	    6.0000 	   38.0862
    0.7553 	   51.8680 	    3.0000 	    6.0000 	   38.1542
    0.6180 	   52.0080 	    3.0000 	    6.0000 	   38.2242
    0.8621 	   52.1560 	    3.0000 	    6.0000 	   38.2982
    0.6180 	   52.2840 	    3.0000 	    6.0000 	   38.3622
    0.7401 	   52.4100 	    3.0000 	    6.0000 	   38.4252
    0.6485 	   52.5380 	    3.0000 	    6.0000 	   38.4892
    0.6180 	   52.6700 	    3.0000 	    6.0000 	   38.5552
    0.7248 	   52.7960 	    3.0000 	    6.0000 	   38.6182
    0.4807 	   52.9160 	    3.0000 	    6.0000 	   38.6782
    0.8011 	   53.0380 	    3.0000 	    6.0000 	   38.7392
    0.6332 	   53.1800 	    3.0000 	    6.0000 	   38.8102
    0.8621 	   53.3260 	    3.0000 	    6.0000 	   38.8832
    0.6332 	   53.4700 	    3.0000 	    6.0000 	   38.9552
    0.6638 	   53.6120 	    3.0000 	    6.0000 	   39.0262
    0.7401 	   53.7480 	    3.0000 	    6.0000 	   39.0942
    0.7401 	   53.8860 	    3.0000 	    6.0000 	   39.1632
    0.6485 	   54.0260 	    3.0000 	    6.0000 	   39.2332
    0.3281 	   54.1740 	    3.0000 	    6.0000 	   39.3072
    0.6943 	   54.3160 	    3.0000 	    6.0000 	   39.3783
    0.6485 	   54.4500 	    3.0000 	    6.0000 	   39.4453
    0.6943 	   54.5800 	    3.0000 	    6.0000 	   39.5103
    0.7401 	   54.7180 	    3.0000 	    6.0000 	   39.5793
    0.8316 	   54.8500 	    3.0000 	    6.0000 	   39.6453
    0.3281 	   54.9740 	    3.0000 	    6.0000 	   39.7073
    0.5722 	   55.1040 	    3.0000 	    6.0000 	   39.7723
    0.6485 	   55.2520 	    3.0000 	    6.0000 	   39.8463
    0.6332 	   55.3840 	    3.0000 	    6.0000 	   39.9123
    0.5722 	   55.5260 	    3.0000 	    6.0000 	   39.9833
    0.7706 	   55.6740 	    3.0000 	    6.0000 	   40.0573
    0.5722 	   55.8140 	    3.0000 	    6.0000 	   40.1273
    0.7553 	   55.9620 	    3.0000 	    6.0000 	   40.2013
    0.7553 	   56.1020 	    3.0000 	    6.0000 	   40.2713
    0.6485 	   56.2520 	    3.0000 	    6.0000 	   40.3463
    0.6332 	   56.3940 	    3.0000 	    6.0000 	   40.4173
    0.5875 	   56.5360 	    3.0000 	    6.0000 	   40.4883
    0.6332 	   56.6640 	    3.0000 	    6.0000 	   40.5523
    0.6332 	   56.7940 	    3.0000 	    6.0000 	   40.6173
    0.7095 	   56.9220 	    3.0000 	    6.0000 	   40.6813
    0.5264 	   57.0500 	    3.0000 	    6.0000 	   40.7453
    0.5264 	   57.1820 	    3.0000 	    6.0000 	   40.8113
    0.7553 	   57.3060 	    3.0000 	    6.0000 	   40.8733
    0.6790 	   57.4300 	    3.0000 	    6.0000 	   40.9353
    0.5722 	   57.5620 	    3.0000 	    6.0000 	   41.0013
    0.4959 	   57.7060 	    3.0000 	    6.0000 	   41.0733
    0.5264 	   57.8500 	    3.0000 	    6.0000 	   41.1454
    0.6180 	   57.9960 	    3.0000 	    6.0000 	   41.2184
    0.5417 	   58.1340 	    3.0000 	    6.0000 	   41.2874
    0.5417 	   58.2900 	    3.0000 	    6.0000 	   41.3654
    0.6180 	   58.4320 	    3.0000 	    6.0000 	   41.4364
    0.5722 	   58.5680 	    3.0000 	    6.0000 	   41.5044
    0.6943 	   58.6940 	    3.0000 	    6.0000 	   41.5674
    0.5417 	   58.8260 	    3.0000 	    6.0000 	   41.6334
    0.6943 	   58.9500 	    3.0000 	    6.0000 	   41.6954
    0.5112 	   59.0760 	    3.0000 	    6.0000 	   41.7584
    0.4807 	   59.2120 	    3.0000 	    6.0000 	   41.8264
    0.6638 	   59.3520 	    3.0000 	    6.0000 	   41.8964
    0.4349 	   59.4920 	    3.0000 	    6.0000 	   41.9664
    0.6638 	   59.6260 	    3.0000 	    6.0000 	   42.0334
    0.6485 	   59.7740 	    3.0000 	    6.0000 	   42.1074
    0.5112 	   59.9200 	    3.0000 	    6.0000 	   42.1804
    0.5417 	   60.0580 	    3.0000 	    6.0000 	   42.2494
    0.5570 	   60.2080 	    3.0000 	    6.0000 	   42.3244
    0.5875 	   60.3480 	    3.0000 	    6.0000 	   42.3944
    0.5570 	   60.4860 	    3.0000 	    6.0000 	   42.4634
    0.6180 	   60.6300 	    3.0000 	    6.0000 	   42.5354
    0.5875 	   60.7600 	    3.0000 	    6.0000 	   42.6004
    0.4959 	   60.8920 	    3.0000 	    6.0000 	   42.6664
    0.6027 	   61.0140 	    3.0000 	    6.0000 	   42.7274
    0.5112 	   61.1540 	    3.0000 	    6.0000 	   42.7974
    0.6180 	   61.3040 	    3.0000 	    6.0000 	   42.8724
    0.5570 	   61.4460 	    3.0000 	    6.0000 	   42.9435
    0.6180 	   61.5880 	    3.0000 	    6.0000 	   43.0145
    0.5722 	   61.7360 	    3.0000 	    6.0000 	   43.0885
    0.4654 	   61.8780 	    3.0000 	    6.0000 	   43.1595
    0.5417 	   62.0200 	    3.0000 	    6.0000 	   43.2305
    0.5112 	   62.1800 	    3.0000 	    6.0000 	   43.3105
    0.4196 	   62.3300 	    3.0000 	    6.0000 	   43.3855
    0.4959 	   62.4780 	    3.0000 	    6.0000 	   43.4595
    0.4349 	   62.6100 	    3.0000 	    6.0000 	   43.5255
    0.6180 	   62.7480 	    3.0000 	    6.0000 	   43.5945
    0.5875 	   62.8760 	    3.0000 	    6.0000 	   43.6585
    0.4654 	   63.0040 	    3.0000 	    6.0000 	   43.7225
    0.4196 	   63.1400 	    3.0000 	    6.0000 	   43.7905
    0.4654 	   63.2700 	    3.0000 	    6.0000 	   43.8555
    0.2823 	   63.3980 	    3.0000 	    6.0000 	   43.9195
    0.4501 	   63.5320 	    3.0000 	    6.0000 	   43.9865
    0.4501 	   63.6600 	    3.0000 	    6.0000 	   44.0505
    0.5264 	   63.7880 	    3.0000 	    6.0000 	   44.1145
    0.4349 	   63.9340 	    3.0000 	    6.0000 	   44.1875
    0.5264 	   64.0760 	    3.0000 	    6.0000 	   44.2585
    0.5570 	   64.2240 	    3.0000 	    6.0000 	   44.3325
    0.5417 	   64.3720 	    3.0000 	    6.0000 	   44.4065
    0.4959 	   64.5160 	    3.0000 	    6.0000 	   44.4785
    0.6027 	   64.6480 	    3.0000 	    6.0000 	   44.5445
    0.5112 	   64.7840 	    3.0000 	    6.0000 	   44.6125
    0.4807 	   64.9160 	    3.0000 	    6.0000 	   44.6786
    0.5570 	   65.0440 	    3.0000 	    6.0000 	   44.7426
    0.4959 	   65.1780 	    3.0000 	    6.0000 	   44.8096
    0.5417 	   65.3220 	    3.0000 	    6.0000 	   44.8816
    0.4654 	   65.4700 	    3.0000 	    6.0000 	   44.9556
    0.6485 	   65.6120 	    3.0000 	    6.0000 	   45.0266
    0.5875 	   65.7520 	    3.0000 	    6.0000 	   45.0966
    0.5417 	   65.8840 	    3.0000 	    6.0000 	   45.1626
    0.5722 	   66.0180 	    3.0000 	    6.0000 	   45.2296
    0.4807 	   66.1540 	    3.0000 	    6.0000 	   45.2976
    0.5264 	   66.2880 	    3.0000 	    6.0000 	   45.3646
    0.7095 	   66.4260 	    3.0000 	    6.0000 	   45.4336
    0.5112 	   66.5580 	    3.0000 	    6.0000 	   45.4996
    0.5264 	   66.6920 	    3.0000 	    6.0000 	   45.5666
    0.5264 	   66.8240 	    3.0000 	    6.0000 	   45.6326
    0.5112 	   66.9540 	    3.0000 	    6.0000 	   45.6976
    0.6485 	   67.0940 	    3.0000 	    6.0000 	   45.7676
    0.5722 	   67.2420 	    3.0000 	    6.0000 	   45.8416
    0.5112 	   67.3920 	    3.0000 	    6.0000 	   45.9166
    0.5264 	   67.5400 	    3.0000 	    6.0000 	   45.9906
    0.4196 	   67.6860 	    3.0000 	    6.0000 	   46.0636
    0.4349 	   67.8240 	    3.0000 	    6.0000 	   46.1326
    0.6332 	   67.9600 	    3.0000 	    6.0000 	   46.2006
    0.4959 	   68.0920 	    3.0000 	    6.0000 	   46.2666
    0.6180 	   68.2320 	    3.0000 	    6.0000 	   46.3366
    0.6638 	   68.3820 	    3.0000 	    6.0000 	   46.4117
    0.5875 	   68.5260 	    3.0000 	    6.0000 	   46.4837
    0.2365 	   68.6680 	    3.0000 	    6.0000 	   46.5547
    0.3738 	   68.8020 	    3.0000 	    6.0000 	   46.6217
    0.4501 	   68.9360 	    3.0000 	    6.0000 	   46.6887
    0.5570 	   69.0660 	    3.0000 	    6.0000 	   46.7537
    0.4654 	   69.2120 	    3.0000 	    6.0000 	   46.8267
    0.4044 	   69.3620 	    3.0000 	    6.0000 	   46.9017
    0.6485 	   69.5060 	    3.0000 	    6.0000 	   46.9737
    0.3738 	   69.6460 	    3.0000 	    6.0000 	   47.0437
    0.1297 	   69.7860 	    3.0000 	    6.0000 	   47.1137
    0.4959 	   69.9300 	    3.0000 	    6.0000 	   47.1857
    0.5875 	   70.0760 	    3.0000 	    6.0000 	   47.2587
    0.8774 	   70.2300 	    3.0000 	    6.0000 	   47.3357
    0.4501 	   70.3800 	    3.0000 	    6.0000 	   47.4107
    0.5875 	   70.5380 	    3.0000 	    6.0000 	   47.4897
    0.5875 	   70.6780 	    3.0000 	    6.0000 	   47.5597
    0.5112 	   70.8140 	    3.0000 	    6.0000 	   47.6277
    0.5417 	   70.9500 	    3.0000 	    6.0000 	   47.6957
    0.4349 	   71.0800 	    3.0000 	    6.0000 	   47.7607
    0.2823 	   71.2120 	    3.0000 	    6.0000 	   47.8267
    0.5264 	   71.3460 	    3.0000 	    6.0000 	   47.8937
    0.6332 	   71.4820 	    3.0000 	    6.0000 	   47.9617
    0.4044 	   71.6240 	    3.0000 	    6.0000 	   48.0327
    0.3891 	   71.7680 	    3.0000 	    6.0000 	   48.1047
    0.5264 	   71.9120 	    3.0000 	    6.0000 	   48.1768
    0.4349 	   72.0600 	    3.0000 	    6.0000 	   48.2508
    0.6180 	   72.2180 	    3.0000 	    6.0000 	   48.3298
    0.4959 	   72.3760 	    3.0000 	    6.0000 	   48.4088
    0.5112 	   72.5320 	    3.0000 	    6.0000 	   48.4868
    0.5417 	   72.6720 	    3.0000 	    6.0000 	   48.5568
    0.5417 	   72.8120 	    3.0000 	    6.0000 	   48.6268
    0.6180 	   72.9520 	    3.0000 	    6.0000 	   48.6968
    0.4654 	   73.0860 	    3.0000 	    6.0000 	   48.7638
    0.4807 	   73.2360 	    3.0000 	    6.0000 	   48.8388
    0.4349 	   73.3820 	    3.0000 	    6.0000 	   48.9118
    0.4349 	   73.5340 	    3.0000 	    6.0000 	   48.9878
    0.3586 	   73.6780 	    3.0000 	    6.0000 	   49.0598
    0.4807 	   73.8340 	    3.0000 	    6.0000 	   49.1378
    0.5112 	   73.9800 	    3.0000 	    6.0000 	   49.2108
    0.4501 	   74.1320 	    3.0000 	    6.0000 	   49.2868
    0.3738 	   74.2920 	    3.0000 	    6.0000 	   49.3668
    0.3891 	   74.4420 	    3.0000 	    6.0000 	   49.4418
    0.3738 	   74.5880 	    3.0000 	    6.0000 	   49.5148
    0.3738 	   74.7280 	    3.0000 	    6.0000 	   49.5848
    0.4501 	   74.8680 	    3.0000 	    6.0000 	   49.6548
    0.5417 	   75.0020 	    3.0000 	    6.0000 	   49.7218
    0.4501 	   75.1500 	    3.0000 	    6.0000 	   49.7958
    0.4196 	   75.3020 	    3.0000 	    6.0000 	   49.8718
    0.4501 	   75.4560 	    3.0000 	    6.0000 	   49.9489
    0.4654 	   75.6060 	    3.0000 	    6.0000 	   50.0239
    0.5264 	   75.7520 	    3.0000 	    6.0000 	   50.0969
    0.4501 	   75.9000 	    3.0000 	    6.0000 	   50.1709
    0.4044 	   76.0480 	    3.0000 	    6.0000 	   50.2449
    0.5722 	   76.2040 	    3.0000 	    6.0000 	   50.3229
    0.5570 	   76.3540 	    3.0000 	    6.0000 	   50.3979
    0.3433 	   76.5060 	    3.0000 	    6.0000 	   50.4739
    0.2213 	   76.6460 	    3.0000 	    6.0000 	   50.5439
    0.4044 	   76.7840 	    3.0000 	    6.0000 	   50.6129
    0.4349 	   76.9200 	    3.0000 	    6.0000 	   50.6809
    0.4959 	   77.0520 	    3.0000 	    6.0000 	   50.7469
    0.3128 	   77.1940 	    3.0000 	    6.0000 	   50.8179
    0.4501 	   77.3440 	    3.0000 	    6.0000 	   50.8929
    0.4044 	   77.4960 	    3.0000 	    6.0000 	   50.9689
    0.4349 	   77.6480 	    3.0000 	    6.0000 	   51.0449
    0.3586 	   77.7960 	    3.0000 	    6.0000 	   51.1189
    0.4959 	   77.9420 	    3.0000 	    6.0000 	   51.1909
    0.3891 	   78.0860 	    3.0000 	    6.0000 	   51.2639
    0.4807 	   78.2300 	    3.0000 	    6.0000 	   51.3359
    0.4349 	   78.3760 	    3.0000 	    6.0000 	   51.4089
    0.6332 	   78.5280 	    3.0000 	    6.0000 	   51.4849
    0.3738 	   78.6740 	    3.0000 	    6.0000 	   51.5579
    0.3433 	   78.8220 	    3.0000 	    6.0000 	   51.6320
    0.5570 	   78.9660 	    3.0000 	    6.0000 	   51.7040
    0.5112 	   79.0980 	    3.0000 	    6.0000 	   51.7700
    0.4807 	   79.2540 	    3.0000 	    6.0000 	   51.8480
    0.4349 	   79.4060 	    3.0000 	    6.0000 	   51.9240
    0.3891 	   79.5580 	    3.0000 	    6.0000 	   52.0000
    0.3433 	   79.7100 	    3.0000 	    6.0000 	   52.0760
    0.5417 	   79.8640 	    3.0000 	    6.0000 	   52.1530
    0.4349 	   80.0220 	    3.0000 	    6.0000 	   52.2320
    0.3281 	   80.1800 	    3.0000 	    6.0000 	   52.3110
    0.5417 	   80.3320 	    3.0000 	    6.0000 	   52.3870
    0.3738 	   80.4860 	    3.0000 	    6.0000 	   52.4640
    0.4196 	   80.6320 	    3.0000 	    6.0000 	   52.5370
    0.4196 	   80.7740 	    3.0000 	    6.0000 	   52.6080
    0.5264 	   80.9240 	    3.0000 	    6.0000 	   52.6830
    0.4044 	   81.0540 	    3.0000 	    6.0000 	   52.7480
    0.5112 	   81.1920 	    3.0000 	    6.0000 	   52.8160
    0.3128 	   81.3480 	    3.0000 	    6.0000 	   52.8940
    0.4196 	   81.5000 	    3.0000 	    6.0000 	   52.9700
    0.3738 	   81.6520 	    3.0000 	    6.0000 	   53.0460
    0.3128 	   81.8060 	    3.0000 	    6.0000 	   53.1230
    0.4044 	   81.9540 	    3.0000 	    6.0000 	   53.1970
    0.5112 	   82.1020 	    3.0000 	    6.0000 	   53.2710
    0.4807 	   82.2680 	    3.0000 	    6.0000 	   53.3540
    0.3891 	   82.4140 	    3.0000 	    6.0000 	   53.4271
    0.4654 	   82.5640 	    3.0000 	    6.0000 	   53.5021
    0.4654 	   82.7060 	    3.0000 	    6.0000 	   53.5731
    0.4959 	   82.8520 	    3.0000 	    6.0000 	   53.6461
    0.4807 	   82.9920 	    3.0000 	    6.0000 	   53.7151
    0.4349 	   83.1260 	    3.0000 	    6.0000 	   53.7831
    0.4349 	   83.2740 	    3.0000 	    6.0000 	   53.8571
    0.4959 	   83.4280 	    3.0000 	    6.0000 	   53.9341
    0.5264 	   83.5860 	    3.0000 	    6.0000 	   54.0131
    0.3433 	   83.7340 	    3.0000 	    6.0000 	   54.0871
    0.4044 	   83.8780 	    3.0000 	    6.0000 	   54.1591
    0.3891 	   84.0160 	    3.0000 	    6.0000 	   54.2281
    0.5112 	   84.1760 	    3.0000 	    6.0000 	   54.3081
    0.2823 	   84.3320 	    3.0000 	    6.0000 	   54.3861
    0.3586 	   84.4860 	    3.0000 	    6.0000 	   54.4631
    0.4654 	   84.6380 	    3.0000 	    6.0000 	   54.5391
    0.2670 	   84.7820 	    3.0000 	    6.0000 	   54.6111
    0.2976 	   84.9240 	    3.0000 	    6.0000 	   54.6821
    0.3891 	   85.0600 	    3.0000 	    6.0000 	   54.7501
    0.4349 	   85.2040 	    3.0000 	    6.0000 	   54.8221
    0.4044 	   85.3540 	    3.0000 	    6.0000 	   54.8971
    0.3433 	   85.5040 	    3.0000 	    6.0000 	   54.9721
    0.4501 	   85.6580 	    3.0000 	    6.0000 	   55.0491
    0.4349 	   85.8120 	    3.0000 	    6.0000 	   55.1261
    0.4654 	   85.9600 	    3.0000 	    6.0000 	   55.2002
    0.3586 	   86.1160 	    3.0000 	    6.0000 	   55.2782
    0.2670 	   86.2700 	    3.0000 	    6.0000 	   55.3552
    0.2976 	   86.4180 	    3.0000 	    6.0000 	   55.4292
    0.3433 	   86.5640 	    3.0000 	    6.0000 	   55.5022
    0.3128 	   86.7020 	    3.0000 	    6.0000 	   55.5712
    0.4501 	   86.8420 	    3.0000 	    6.0000 	   55.6412
    0.3891 	   86.9900 	    3.0000 	    6.0000 	   55.7152
    0.4501 	   87.1240 	    3.0000 	    6.0000 	   55.7822
    0.3738 	   87.2680 	    3.0000 	    6.0000 	   55.8542
    0.3891 	   87.4280 	    3.0000 	    6.0000 	   55.9342
    0.2976 	   87.5820 	    3.0000 	    6.0000 	   56.0112
    0.3281 	   87.7400 	    3.0000 	    6.0000 	   56.0902
    0.4349 	   87.8880 	    3.0000 	    6.0000 	   56.1642
    0.4501 	   88.0300 	    3.0000 	    6.0000 	   56.2352
    0.3128 	   88.1740 	    3.0000 	    6.0000 	   56.3072
    0.1450 	   88.3100 	    3.0000 	    6.0000 	   56.3752
    0.3128 	   88.4480 	    3.0000 	    6.0000 	   56.4442
    0.0076 	   88.5880 	    3.0000 	    6.0000 	   56.5142
    0.0687 	   88.7300 	    3.0000 	    6.0000 	   56.5852
    0.3891 	   88.8720 	    3.0000 	    6.0000 	   56.6562
    0.3738 	   89.0200 	    3.0000 	    6.0000 	   56.7302
    0.2823 	   89.1540 	    3.0000 	    6.0000 	   56.7972
    0.2518 	   89.3100 	    3.0000 	    6.0000 	   56.8752
    0.5570 	   89.4640 	    3.0000 	    6.0000 	   56.9523
    0.4807 	   89.6120 	    3.0000 	    6.0000 	   57.0263
    0.2823 	   89.7560 	    3.0000 	    6.0000 	   57.0983
    0.4501 	   89.9080 	    3.0000 	    6.0000 	   57.1743
    0.0992 	   90.0580 	    3.0000 	    6.0000 	   57.2493
    0.5112 	   90.2220 	    3.0000 	    6.0000 	   57.3303
    0.3891 	   90.3780 	    3.0000 	    6.0000 	   57.4093
    0.4959 	   90.5300 	    3.0000 	    6.0000 	   57.4853
    0.4044 	   90.6800 	    3.0000 	    6.0000 	   57.5603
    0.1144 	   90.8300 	    3.0000 	    6.0000 	   57.6353
    0.3738 	   90.9780 	    3.0000 	    6.0000 	   57.7093
    0.4349 	   91.1200 	    3.0000 	    6.0000 	   57.7803
    0.5417 	   91.2700 	    3.0000 	    6.0000 	   57.8553
    0.4349 	   91.4240 	    3.0000 	    6.0000 	   57.9323
    0.2976 	   91.5680 	    3.0000 	    6.0000 	   58.0043
    0.2976 	   91.7140 	    3.0000 	    6.0000 	   58.0773
    0.3586 	   91.8620 	    3.0000 	    6.0000 	   58.1513
    0.4196 	   92.0020 	    3.0000 	    6.0000 	   58.2213
    0.5722 	   92.1700 	    3.0000 	    6.0000 	   58.3053
    0.4501 	   92.3280 	    3.0000 	    6.0000 	   58.3843
    0.3433 	   92.4860 	    3.0000 	    6.0000 	   58.4633
    0.4044 	   92.6460 	    3.0000 	    6.0000 	   58.5433
    0.4044 	   92.7920 	    3.0000 	    6.0000 	   58.6163
    0.2976 	   92.9380 	    3.0000 	    6.0000 	   58.6894
    0.3891 	   93.0760 	    3.0000 	    6.0000 	   58.7584
    0.3433 	   93.2160 	    3.0000 	    6.0000 	   58.8284
    0.3433 	   93.3580 	    3.0000 	    6.0000 	   58.8994
    0.3891 	   93.4980 	    3.0000 	    6.0000 	   58.9694
    0.2976 	   93.6480 	    3.0000 	    6.0000 	   59.0444
    0.3738 	   93.8040 	    3.0000 	    6.0000 	   59.1224
    0.4807 	   93.9600 	    3.0000 	    6.0000 	   59.2004
    0.1297 	   94.1160 	    3.0000 	    6.0000 	   59.2784
    0.3433 	   94.2820 	    3.0000 	    6.0000 	   59.3614
    0.3586 	   94.4340 	    3.0000 	    6.0000 	   59.4374
    0.3738 	   94.5880 	    3.0000 	    6.0000 	   59.5144
    0.3281 	   94.7400 	    3.0000 	    6.0000 	   59.5904
    0.4044 	   94.8840 	    3.0000 	    6.0000 	   59.6624
    0.4044 	   95.0300 	    3.0000 	    6.0000 	   59.7354
    0.4501 	   95.1640 	    3.0000 	    6.0000 	   59.8024
    0.3128 	   95.3200 	    3.0000 	    6.0000 	   59.8804
    0.2976 	   95.4800 	    3.0000 	    6.0000 	   59.9604
    0.3738 	   95.6380 	    3.0000 	    7.0000 	    0.0394
    0.3586 	   95.7920 	    3.0000 	    7.0000 	    0.1164
    0.2518 	   95.9480 	    3.0000 	    7.0000 	    0.1944
    0.3738 	   96.1020 	    3.0000 	    7.0000 	    0.2714
    0.3891 	   96.2600 	    3.0000 	    7.0000 	    0.3504
    0.3738 	   96.4180 	    3.0000 	    7.0000 	    0.4295
    0.3891 	   96.5740 	    3.0000 	    7.0000 	    0.5075
    0.3433 	   96.7260 	    3.0000 	    7.0000 	    0.5835
    0.3128 	   96.8800 	    3.0000 	    7.0000 	    0.6605
    0.3738 	   97.0260 	    3.0000 	    7.0000 	    0.7335
    0.2365 	   97.1660 	    3.0000 	    7.0000 	    0.8035
    0.3281 	   97.3200 	    3.0000 	    7.0000 	    0.8805
    0.3281 	   97.4840 	    3.0000 	    7.0000 	    0.9625
    0.3433 	   97.6420 	    3.0000 	    7.0000 	    1.0415
    0.1602 	   97.8060 	    3.0000 	    7.0000 	    1.1235
    0.3128 	   97.9580 	    3.0000 	    7.0000 	    1.1995
    0.3738 	   98.1180 	    3.0000 	    7.0000 	    1.2795
    0.4349 	   98.2840 	    3.0000 	    7.0000 	    1.3625
    0.3891 	   98.4280 	    3.0000 	    7.0000 	    1.4345
    0.3586 	   98.5720 	    3.0000 	    7.0000 	    1.5065
    0.3738 	   98.7160 	    3.0000 	    7.0000 	    1.5785
    0.4501 	   98.8640 	    3.0000 	    7.0000 	    1.6525
    0.2976 	   99.0140 	    3.0000 	    7.0000 	    1.7275
    0.3281 	   99.1500 	    3.0000 	    7.0000 	    1.7955
    0.4959 	   99.2940 	    3.0000 	    7.0000 	    1.8675
    0.4654 	   99.4560 	    3.0000 	    7.0000 	    1.9485
    0.1907 	   99.6120 	    3.0000 	    7.0000 	    2.0265
    0.3281 	   99.7680 	    3.0000 	    7.0000 	    2.1045
    0.3891 	   99.9240 	    3.0000 	    7.0000 	    2.1826
    0.3891 	  100.0800 	    3.0000 	    7.0000 	    2.2606
    0.3738 	  100.2300 	    3.0000 	    7.0000 	    2.3356
    0.5112 	  100.3780 	    3.0000 	    7.0000 	    2.4096
    0.2976 	  100.5160 	    3.0000 	    7.0000 	    2.4786
    0.1602 	  100.6620 	    3.0000 	    7.0000 	    2.5516
    0.4349 	  100.8080 	    3.0000 	    7.0000 	    2.6246
    0.0534 	  100.9540 	    3.0000 	    7.0000 	    2.6976
    0.3281 	  101.1000 	    3.0000 	    7.0000 	    2.7706
    0.3433 	  101.2420 	    3.0000 	    7.0000 	    2.8416
    0.4501 	  101.4040 	    3.0000 	    7.0000 	    2.9226
    0.2976 	  101.5600 	    3.0000 	    7.0000 	    3.0006
    0.2976 	  101.7180 	    3.0000 	    7.0000 	    3.0796
    0.3128 	  101.8800 	    3.0000 	    7.0000 	    3.1606
    0.3281 	  102.0300 	    3.0000 	    7.0000 	    3.2356
    0.4349 	  102.1860 	    3.0000 	    7.0000 	    3.3136
    0.4501 	  102.3460 	    3.0000 	    7.0000 	    3.3936
    0.3281 	  102.5060 	    3.0000 	    7.0000 	    3.4736
    0.1755 	  102.6520 	    3.0000 	    7.0000 	    3.5466
    0.3586 	  102.7980 	    3.0000 	    7.0000 	    3.6196
    0.4349 	  102.9500 	    3.0000 	    7.0000 	    3.6956
    0.4044 	  103.0940 	    3.0000 	    7.0000 	    3.7676
    0.2823 	  103.2480 	    3.0000 	    7.0000 	    3.8446
    0.3586 	  103.5040 	    3.0000 	    7.0000 	    3.9727
    0.4807 	  103.6660 	    3.0000 	    7.0000 	    4.0537
    0.1907 	  103.8220 	    3.0000 	    7.0000 	    4.1317
    0.2823 	  103.9800 	    3.0000 	    7.0000 	    4.2107
    0.2976 	  104.1380 	    3.0000 	    7.0000 	    4.2897
    0.0229 	  104.3020 	    3.0000 	    7.0000 	    4.3717
    0.2976 	  104.4600 	    3.0000 	    7.0000 	    4.4507
    0.4044 	  104.6160 	    3.0000 	    7.0000 	    4.5287
    0.2976 	  104.7660 	    3.0000 	    7.0000 	    4.6037
    0.1907 	  104.9140 	    3.0000 	    7.0000 	    4.6777
    0.2365 	  105.0580 	    3.0000 	    7.0000 	    4.7497
    0.4654 	  105.2080 	    3.0000 	    7.0000 	    4.8247
    0.3586 	  105.3580 	    3.0000 	    7.0000 	    4.8997
    0.4807 	  105.5220 	    3.0000 	    7.0000 	    4.9817
    0.1450 	  105.6840 	    3.0000 	    7.0000 	    5.0627
    0.3128 	  105.8340 	    3.0000 	    7.0000 	    5.1377
    0.2518 	  105.9780 	    3.0000 	    7.0000 	    5.2097
    0.2976 	  106.1240 	    3.0000 	    7.0000 	    5.2827
    0.2823 	  106.2680 	    3.0000 	    7.0000 	    5.3547
    0.2365 	  106.4100 	    3.0000 	    7.0000 	    5.4257
    0.2976 	  106.5540 	    3.0000 	    7.0000 	    5.4977
    0.2976 	  106.6960 	    3.0000 	    7.0000 	    5.5687
    0.3433 	  106.8400 	    3.0000 	    7.0000 	    5.6408
    0.3586 	  106.9840 	    3.0000 	    7.0000 	    5.7128
    0.2976 	  107.1240 	    3.0000 	    7.0000 	    5.7828
    0.3128 	  107.2660 	    3.0000 	    7.0000 	    5.8538
    0.4196 	  107.4180 	    3.0000 	    7.0000 	    5.9298
    0.3586 	  107.5780 	    3.0000 	    7.0000 	    6.0098
    0.2670 	  107.7500 	    3.0000 	    7.0000 	    6.0958
    0.3586 	  107.9040 	    3.0000 	    7.0000 	    6.1728
    0.4044 	  108.0600 	    3.0000 	    7.0000 	    6.2508
    0.3281 	  108.2160 	    3.0000 	    7.0000 	    6.3288
    0.3128 	  108.3720 	    3.0000 	    7.0000 	    6.4068
    0.3128 	  108.5280 	    3.0000 	    7.0000 	    6.4848
    0.2518 	  108.6860 	    3.0000 	    7.0000 	    6.5638
    0.3281 	  108.7620 	    3.0000 	    7.0000 	    6.6018