File: instron/deadline/size/blue_15_2/blue_15_2_60_30_force.txt
Thayer School of Engineering        Instron 4442 Mechanical Testing System
7/8/2018 11:14:45 PM

  Force (N)	Extension (mm)	Not Used	Not Used	Not Used	     Hour	    Minute	    Second
    0.3281 	    0.5085 	   23.0000 	   15.0000 	   33.0441
    0.4044 	    0.6025 	   23.0000 	   15.0000 	   33.2322
    0.3586 	    0.6885 	   23.0000 	   15.0000 	   33.4042
    0.4501 	    0.7855 	   23.0000 	   15.0000 	   33.5982
    0.3738 	    0.8800 	   23.0000 	   15.0000 	   33.7872
    0.5722 	    0.9765 	   23.0000 	   15.0000 	   33.9802
    0.4501 	    1.0785 	   23.0000 	   15.0000 	   34.1842
    0.1602 	    1.1875 	   23.0000 	   15.0000 	   34.4022
    0.4196 	    1.2820 	   23.0000 	   15.0000 	   34.5912
    0.5875 	    1.3780 	   23.0000 	   15.0000 	   34.7832
    0.2670 	    1.4795 	   23.0000 	   15.0000 	   34.9863
    0.5417 	    1.5825 	   23.0000 	   15.0000 	   35.1913
    0.5875 	    1.6555 	   23.0000 	   15.0000 	   35.3383
    0.4807 	    1.7195 	   23.0000 	   15.0000 	   35.4663
    0.5264 	    1.7840 	   23.0000 	   15.0000 	   35.5953
    0.6180 	    1.8520 	   23.0000 	   15.0000 	   35.7313
    0.6332 	    1.9180 	   23.0000 	   15.0000 	   35.8633
    0.8316 	    1.9835 	   23.0000 	   15.0000 	   35.9943
    0.6485 	    2.0635 	   23.0000 	   15.0000 	   36.1543
    0.8011 	    2.1260 	   23.0000 	   15.0000 	   36.2793
    0.6485 	    2.1920 	   23.0000 	   15.0000 	   36.4113
    0.5722 	    2.2565 	   23.0000 	   15.0000 	   36.5403
    0.6790 	    2.3205 	   23.0000 	   15.0000 	   36.6683
    0.6943 	    2.3865 	   23.0000 	   15.0000 	   36.8004
    0.7401 	    2.4500 	   23.0000 	   15.0000 	   36.9274
    0.5722 	    2.5150 	   23.0000 	   15.0000 	   37.0574
    0.4196 	    2.5800 	   23.0000 	   15.0000 	   37.1874
    0.7706 	    2.6450 	   23.0000 	   15.0000 	   37.3174
    0.6790 	    2.7200 	   23.0000 	   15.0000 	   37.4674
    0.7553 	    2.7815 	   23.0000 	   15.0000 	   37.5904
    0.8011 	    2.8485 	   23.0000 	   15.0000 	   37.7244
    1.0147 	    2.9105 	   23.0000 	   15.0000 	   37.8484
    0.9384 	    2.9865 	   23.0000 	   15.0000 	   38.0004
    0.8164 	    3.0445 	   23.0000 	   15.0000 	   38.1164
    0.8316 	    3.0980 	   23.0000 	   15.0000 	   38.2234
    0.8621 	    3.1590 	   23.0000 	   15.0000 	   38.3454
    0.8774 	    3.2235 	   23.0000 	   15.0000 	   38.4744
    0.9232 	    3.2885 	   23.0000 	   15.0000 	   38.6045
    1.0147 	    3.3505 	   23.0000 	   15.0000 	   38.7285
    0.9232 	    3.4120 	   23.0000 	   15.0000 	   38.8515
    0.9689 	    3.4765 	   23.0000 	   15.0000 	   38.9805
    0.8774 	    3.5415 	   23.0000 	   15.0000 	   39.1105
    0.9995 	    3.6035 	   23.0000 	   15.0000 	   39.2345
    1.0300 	    3.6670 	   23.0000 	   15.0000 	   39.3615
    0.9384 	    3.7285 	   23.0000 	   15.0000 	   39.4845
    0.9689 	    3.7945 	   23.0000 	   15.0000 	   39.6165
    1.0300 	    3.8615 	   23.0000 	   15.0000 	   39.7505
    1.0452 	    3.9250 	   23.0000 	   15.0000 	   39.8775
    0.7858 	    3.9875 	   23.0000 	   15.0000 	   40.0025
    1.0910 	    4.0520 	   23.0000 	   15.0000 	   40.1315
    0.9995 	    4.1170 	   23.0000 	   15.0000 	   40.2616
    1.0605 	    4.1770 	   23.0000 	   15.0000 	   40.3816
    1.1673 	    4.2410 	   23.0000 	   15.0000 	   40.5096
    1.1521 	    4.3020 	   23.0000 	   15.0000 	   40.6316
    0.9689 	    4.3675 	   23.0000 	   15.0000 	   40.7626
    1.1673 	    4.4275 	   23.0000 	   15.0000 	   40.8826
    0.8621 	    4.4910 	   23.0000 	   15.0000 	   41.0096
    1.2436 	    4.5560 	   23.0000 	   15.0000 	   41.1396
    1.2589 	    4.6190 	   23.0000 	   15.0000 	   41.2656
    1.1978 	    4.6840 	   23.0000 	   15.0000 	   41.3956
    1.2741 	    4.7605 	   23.0000 	   15.0000 	   41.5486
    1.1368 	    4.8290 	   23.0000 	   15.0000 	   41.6856
    1.1673 	    4.8930 	   23.0000 	   15.0000 	   41.8136
    1.3046 	    4.9570 	   23.0000 	   15.0000 	   41.9417
    1.2131 	    5.0185 	   23.0000 	   15.0000 	   42.0647
    1.3962 	    5.0810 	   23.0000 	   15.0000 	   42.1897
    1.4725 	    5.1450 	   23.0000 	   15.0000 	   42.3177
    1.2436 	    5.2095 	   23.0000 	   15.0000 	   42.4467
    1.2894 	    5.2715 	   23.0000 	   15.0000 	   42.5707
    1.3657 	    5.3375 	   23.0000 	   15.0000 	   42.7027
    1.2741 	    5.4010 	   23.0000 	   15.0000 	   42.8297
    1.3199 	    5.4665 	   23.0000 	   15.0000 	   42.9607
    1.3352 	    5.5290 	   23.0000 	   15.0000 	   43.0857
    1.3046 	    5.5930 	   23.0000 	   15.0000 	   43.2137
    1.3352 	    5.6585 	   23.0000 	   15.0000 	   43.3447
    1.5183 	    5.7225 	   23.0000 	   15.0000 	   43.4727
    1.1978 	    5.7865 	   23.0000 	   15.0000 	   43.6007
    1.6098 	    5.8530 	   23.0000 	   15.0000 	   43.7337
    1.3809 	    5.9165 	   23.0000 	   15.0000 	   43.8608
    1.4878 	    5.9815 	   23.0000 	   15.0000 	   43.9908
    1.5030 	    6.0445 	   23.0000 	   15.0000 	   44.1168
    1.4878 	    6.1070 	   23.0000 	   15.0000 	   44.2418
    1.2894 	    6.1735 	   23.0000 	   15.0000 	   44.3748
    1.3352 	    6.2375 	   23.0000 	   15.0000 	   44.5028
    1.3504 	    6.2995 	   23.0000 	   15.0000 	   44.6268
    1.2894 	    6.3620 	   23.0000 	   15.0000 	   44.7508
    1.4267 	    6.4250 	   23.0000 	   15.0000 	   44.8768
    1.4115 	    6.4900 	   23.0000 	   15.0000 	   45.0068
    1.4572 	    6.5545 	   23.0000 	   15.0000 	   45.1358
    1.1521 	    6.6180 	   23.0000 	   15.0000 	   45.2628
    1.4878 	    6.6820 	   23.0000 	   15.0000 	   45.3908
    1.4115 	    6.7460 	   23.0000 	   15.0000 	   45.5189
    1.4115 	    6.8160 	   23.0000 	   15.0000 	   45.6589
    1.3962 	    6.8790 	   23.0000 	   15.0000 	   45.7849
    1.5183 	    6.9435 	   23.0000 	   15.0000 	   45.9139
    1.6556 	    7.0090 	   23.0000 	   15.0000 	   46.0449
    1.2131 	    7.0760 	   23.0000 	   15.0000 	   46.1789
    1.1521 	    7.1405 	   23.0000 	   15.0000 	   46.3079
    1.5640 	    7.2030 	   23.0000 	   15.0000 	   46.4329
    1.4115 	    7.2685 	   23.0000 	   15.0000 	   46.5639
    1.4572 	    7.3310 	   23.0000 	   15.0000 	   46.6889
    1.5946 	    7.3945 	   23.0000 	   15.0000 	   46.8159
    1.5793 	    7.4605 	   23.0000 	   15.0000 	   46.9479
    1.5946 	    7.5255 	   23.0000 	   15.0000 	   47.0779
    1.5335 	    7.5900 	   23.0000 	   15.0000 	   47.2070
    1.6251 	    7.6540 	   23.0000 	   15.0000 	   47.3350
    1.5793 	    7.7175 	   23.0000 	   15.0000 	   47.4620
    1.4420 	    7.7810 	   23.0000 	   15.0000 	   47.5890
    1.5946 	    7.8490 	   23.0000 	   15.0000 	   47.7250
    1.6403 	    7.9130 	   23.0000 	   15.0000 	   47.8530
    1.4725 	    7.9790 	   23.0000 	   15.0000 	   47.9850
    1.7166 	    8.0455 	   23.0000 	   15.0000 	   48.1180
    1.5183 	    8.1100 	   23.0000 	   15.0000 	   48.2470
    1.7929 	    8.1770 	   23.0000 	   15.0000 	   48.3810
    1.4878 	    8.2445 	   23.0000 	   15.0000 	   48.5160
    1.6709 	    8.3100 	   23.0000 	   15.0000 	   48.6470
    1.7624 	    8.3740 	   23.0000 	   15.0000 	   48.7750
    1.6709 	    8.4400 	   23.0000 	   15.0000 	   48.9070
    1.6709 	    8.5050 	   23.0000 	   15.0000 	   49.0371
    1.7777 	    8.5715 	   23.0000 	   15.0000 	   49.1701
    1.6098 	    8.6380 	   23.0000 	   15.0000 	   49.3031
    1.7166 	    8.7035 	   23.0000 	   15.0000 	   49.4341
    1.5946 	    8.7680 	   23.0000 	   15.0000 	   49.5631
    1.8997 	    8.8285 	   23.0000 	   15.0000 	   49.6841
    1.7166 	    8.8945 	   23.0000 	   15.0000 	   49.8161
    1.6861 	    8.9580 	   23.0000 	   15.0000 	   49.9421
    1.8235 	    9.0230 	   23.0000 	   15.0000 	   50.0731
    1.6861 	    9.0900 	   23.0000 	   15.0000 	   50.2071
    1.7166 	    9.1560 	   23.0000 	   15.0000 	   50.3391
    1.7319 	    9.2185 	   23.0000 	   15.0000 	   50.4641
    1.5183 	    9.2850 	   23.0000 	   15.0000 	   50.5971
    1.7166 	    9.3505 	   23.0000 	   15.0000 	   50.7281
    1.7777 	    9.4160 	   23.0000 	   15.0000 	   50.8592
    1.7014 	    9.4820 	   23.0000 	   15.0000 	   50.9912
    1.7777 	    9.5475 	   23.0000 	   15.0000 	   51.1222
    1.7472 	    9.6140 	   23.0000 	   15.0000 	   51.2552
    1.7166 	    9.6785 	   23.0000 	   15.0000 	   51.3842
    1.8387 	    9.7355 	   23.0000 	   15.0000 	   51.4982
    1.7624 	    9.7940 	   23.0000 	   15.0000 	   51.6152
    1.8540 	    9.8625 	   23.0000 	   15.0000 	   51.7522
    1.8845 	    9.9280 	   23.0000 	   15.0000 	   51.8832
    1.8692 	    9.9950 	   23.0000 	   15.0000 	   52.0172
    1.7929 	   10.0605 	   23.0000 	   15.0000 	   52.1482
    1.8997 	   10.1250 	   23.0000 	   15.0000 	   52.2772
    1.7929 	   10.1865 	   23.0000 	   15.0000 	   52.4002
    1.7777 	   10.2485 	   23.0000 	   15.0000 	   52.5243
    1.7319 	   10.3100 	   23.0000 	   15.0000 	   52.6473
    1.9608 	   10.3755 	   23.0000 	   15.0000 	   52.7783
    1.7777 	   10.4400 	   23.0000 	   15.0000 	   52.9073
    1.8540 	   10.5075 	   23.0000 	   15.0000 	   53.0423
    1.8540 	   10.5750 	   23.0000 	   15.0000 	   53.1773
    2.0218 	   10.6420 	   23.0000 	   15.0000 	   53.3113
    1.7929 	   10.7095 	   23.0000 	   15.0000 	   53.4463
    1.8540 	   10.7745 	   23.0000 	   15.0000 	   53.5763
    1.7929 	   10.8420 	   23.0000 	   15.0000 	   53.7113
    1.8540 	   10.9065 	   23.0000 	   15.0000 	   53.8403
    1.9303 	   10.9715 	   23.0000 	   15.0000 	   53.9703
    1.6403 	   11.0380 	   23.0000 	   15.0000 	   54.1033
    2.0218 	   11.1015 	   23.0000 	   15.0000 	   54.2304
    2.0676 	   11.1660 	   23.0000 	   15.0000 	   54.3594
    1.6251 	   11.2320 	   23.0000 	   15.0000 	   54.4914
    1.9455 	   11.3000 	   23.0000 	   15.0000 	   54.6274
    2.0981 	   11.3675 	   23.0000 	   15.0000 	   54.7624
    1.9150 	   11.4370 	   23.0000 	   15.0000 	   54.9014
    1.8997 	   11.5035 	   23.0000 	   15.0000 	   55.0344
    2.0066 	   11.5720 	   23.0000 	   15.0000 	   55.1714
    1.8845 	   11.6395 	   23.0000 	   15.0000 	   55.3064
    1.9303 	   11.7070 	   23.0000 	   15.0000 	   55.4414
    1.9608 	   11.7740 	   23.0000 	   15.0000 	   55.5754
    1.8692 	   11.8440 	   23.0000 	   15.0000 	   55.7154
    2.0523 	   11.9090 	   23.0000 	   15.0000 	   55.8454
    1.9150 	   11.9750 	   23.0000 	   15.0000 	   55.9775
    1.9303 	   12.0425 	   23.0000 	   15.0000 	   56.1125
    2.1439 	   12.1070 	   23.0000 	   15.0000 	   56.2415
    2.0066 	   12.1745 	   23.0000 	   15.0000 	   56.3765
    1.8997 	   12.2440 	   23.0000 	   15.0000 	   56.5155
    2.0676 	   12.3125 	   23.0000 	   15.0000 	   56.6525
    1.9150 	   12.3800 	   23.0000 	   15.0000 	   56.7875
    1.8540 	   12.4475 	   23.0000 	   15.0000 	   56.9225
    2.1439 	   12.5155 	   23.0000 	   15.0000 	   57.0585
    2.0218 	   12.5820 	   23.0000 	   15.0000 	   57.1915
    1.8235 	   12.6490 	   23.0000 	   15.0000 	   57.3255
    1.7929 	   12.7185 	   23.0000 	   15.0000 	   57.4645
    2.0523 	   12.7865 	   23.0000 	   15.0000 	   57.6005
    2.0981 	   12.8545 	   23.0000 	   15.0000 	   57.7366
    2.1134 	   12.9225 	   23.0000 	   15.0000 	   57.8726
    2.0371 	   12.9895 	   23.0000 	   15.0000 	   58.0066
    2.1286 	   13.0590 	   23.0000 	   15.0000 	   58.1456
    2.2202 	   13.1285 	   23.0000 	   15.0000 	   58.2846
    2.3728 	   13.1950 	   23.0000 	   15.0000 	   58.4176
    2.0676 	   13.2645 	   23.0000 	   15.0000 	   58.5566
    1.8387 	   13.3330 	   23.0000 	   15.0000 	   58.6936
    1.8997 	   13.4005 	   23.0000 	   15.0000 	   58.8286
    2.2202 	   13.4680 	   23.0000 	   15.0000 	   58.9636
    2.2507 	   13.5360 	   23.0000 	   15.0000 	   59.0996
    2.2660 	   13.6030 	   23.0000 	   15.0000 	   59.2336
    2.2354 	   13.6720 	   23.0000 	   15.0000 	   59.3716
    2.0981 	   13.7405 	   23.0000 	   15.0000 	   59.5087
    2.1286 	   13.8155 	   23.0000 	   15.0000 	   59.6587
    2.0981 	   13.8840 	   23.0000 	   15.0000 	   59.7957
    2.2202 	   13.9520 	   23.0000 	   15.0000 	   59.9317
    2.1897 	   14.0200 	   23.0000 	   16.0000 	    0.0677
    2.3728 	   14.0885 	   23.0000 	   16.0000 	    0.2047
    2.3270 	   14.1575 	   23.0000 	   16.0000 	    0.3427
    2.1592 	   14.2190 	   23.0000 	   16.0000 	    0.4657
    2.3117 	   14.2825 	   23.0000 	   16.0000 	    0.5927
    2.3728 	   14.3530 	   23.0000 	   16.0000 	    0.7337
    2.2660 	   14.4205 	   23.0000 	   16.0000 	    0.8687
    2.3423 	   14.4900 	   23.0000 	   16.0000 	    1.0077
    2.3270 	   14.5600 	   23.0000 	   16.0000 	    1.1477
    2.2202 	   14.6265 	   23.0000 	   16.0000 	    1.2808
    2.3575 	   14.6975 	   23.0000 	   16.0000 	    1.4228
    2.1744 	   14.7660 	   23.0000 	   16.0000 	    1.5598
    2.3270 	   14.8385 	   23.0000 	   16.0000 	    1.7048
    2.3270 	   14.9070 	   23.0000 	   16.0000 	    1.8418
    2.3575 	   14.9745 	   23.0000 	   16.0000 	    1.9768
    2.3423 	   15.0440 	   23.0000 	   16.0000 	    2.1158
    2.4796 	   15.1120 	   23.0000 	   16.0000 	    2.2508
    2.4491 	   15.1805 	   23.0000 	   16.0000 	    2.3878
    2.0676 	   15.2490 	   23.0000 	   16.0000 	    2.5248
    2.3728 	   15.3170 	   23.0000 	   16.0000 	    2.6608
    2.3270 	   15.3845 	   23.0000 	   16.0000 	    2.7958
    2.3575 	   15.4530 	   23.0000 	   16.0000 	    2.9328
    2.3880 	   15.5230 	   23.0000 	   16.0000 	    3.0729
    2.3423 	   15.5935 	   23.0000 	   16.0000 	    3.2139
    2.3728 	   15.6615 	   23.0000 	   16.0000 	    3.3489
    2.3880 	   15.7285 	   23.0000 	   16.0000 	    3.4839
    2.3423 	   15.7955 	   23.0000 	   16.0000 	    3.6179
    2.3270 	   15.8695 	   23.0000 	   16.0000 	    3.7649
    2.4643 	   15.9380 	   23.0000 	   16.0000 	    3.9029
    2.4491 	   16.0050 	   23.0000 	   16.0000 	    4.0369
    2.4491 	   16.0760 	   23.0000 	   16.0000 	    4.1789
    2.4643 	   16.1440 	   23.0000 	   16.0000 	    4.3149
    2.7543 	   16.2130 	   23.0000 	   16.0000 	    4.4529
    2.4033 	   16.2825 	   23.0000 	   16.0000 	    4.5919
    2.4643 	   16.3525 	   23.0000 	   16.0000 	    4.7320
    2.5864 	   16.4210 	   23.0000 	   16.0000 	    4.8690
    2.2354 	   16.4895 	   23.0000 	   16.0000 	    5.0060
    2.3728 	   16.5580 	   23.0000 	   16.0000 	    5.1430
    2.3575 	   16.6265 	   23.0000 	   16.0000 	    5.2800
    2.4033 	   16.6955 	   23.0000 	   16.0000 	    5.4180
    2.3270 	   16.7630 	   23.0000 	   16.0000 	    5.5530
    2.4338 	   16.8330 	   23.0000 	   16.0000 	    5.6930
    2.5406 	   16.8990 	   23.0000 	   16.0000 	    5.8250
    2.5254 	   16.9625 	   23.0000 	   16.0000 	    5.9520
    2.5559 	   17.0285 	   23.0000 	   16.0000 	    6.0840
    2.6932 	   17.1015 	   23.0000 	   16.0000 	    6.2300
    2.4948 	   17.1725 	   23.0000 	   16.0000 	    6.3720
    2.6322 	   17.2405 	   23.0000 	   16.0000 	    6.5081
    2.5406 	   17.3115 	   23.0000 	   16.0000 	    6.6501
    2.2507 	   17.3795 	   23.0000 	   16.0000 	    6.7861
    2.7543 	   17.4495 	   23.0000 	   16.0000 	    6.9261
    2.6322 	   17.5195 	   23.0000 	   16.0000 	    7.0661
    2.5254 	   17.5900 	   23.0000 	   16.0000 	    7.2071
    2.2660 	   17.6600 	   23.0000 	   16.0000 	    7.3471
    2.6017 	   17.7300 	   23.0000 	   16.0000 	    7.4871
    2.7543 	   17.8000 	   23.0000 	   16.0000 	    7.6271
    2.6169 	   17.8700 	   23.0000 	   16.0000 	    7.7671
    2.6017 	   17.9410 	   23.0000 	   16.0000 	    7.9091
    2.3270 	   18.0100 	   23.0000 	   16.0000 	    8.0471
    2.7848 	   18.0825 	   23.0000 	   16.0000 	    8.1922
    2.5711 	   18.1525 	   23.0000 	   16.0000 	    8.3322
    2.7695 	   18.2225 	   23.0000 	   16.0000 	    8.4722
    2.5101 	   18.2910 	   23.0000 	   16.0000 	    8.6092
    2.7237 	   18.3615 	   23.0000 	   16.0000 	    8.7502
    2.6322 	   18.4315 	   23.0000 	   16.0000 	    8.8902
    2.8000 	   18.5010 	   23.0000 	   16.0000 	    9.0292
    2.6780 	   18.5725 	   23.0000 	   16.0000 	    9.1722
    2.6474 	   18.6420 	   23.0000 	   16.0000 	    9.3112
    2.7390 	   18.7120 	   23.0000 	   16.0000 	    9.4512
    2.6322 	   18.7815 	   23.0000 	   16.0000 	    9.5902
    2.6322 	   18.8515 	   23.0000 	   16.0000 	    9.7302
    2.7237 	   18.9220 	   23.0000 	   16.0000 	    9.8712
    2.7085 	   18.9935 	   23.0000 	   16.0000 	   10.0143
    2.7237 	   19.0645 	   23.0000 	   16.0000 	   10.1563
    2.6932 	   19.1345 	   23.0000 	   16.0000 	   10.2963
    2.5864 	   19.2010 	   23.0000 	   16.0000 	   10.4293
    2.9679 	   19.2705 	   23.0000 	   16.0000 	   10.5683
    2.8153 	   19.3445 	   23.0000 	   16.0000 	   10.7163
    2.9526 	   19.4160 	   23.0000 	   16.0000 	   10.8593
    2.8763 	   19.4870 	   23.0000 	   16.0000 	   11.0013
    2.7543 	   19.5605 	   23.0000 	   16.0000 	   11.1483
    2.7085 	   19.6310 	   23.0000 	   16.0000 	   11.2893
    2.8763 	   19.7015 	   23.0000 	   16.0000 	   11.4303
    2.7695 	   19.7730 	   23.0000 	   16.0000 	   11.5733
    2.9068 	   19.8470 	   23.0000 	   16.0000 	   11.7214
    2.8763 	   19.9155 	   23.0000 	   16.0000 	   11.8584
    2.8000 	   19.9850 	   23.0000 	   16.0000 	   11.9974
    2.9068 	   20.0565 	   23.0000 	   16.0000 	   12.1404
    2.9221 	   20.1270 	   23.0000 	   16.0000 	   12.2814
    2.7695 	   20.2005 	   23.0000 	   16.0000 	   12.4284
    2.9374 	   20.2750 	   23.0000 	   16.0000 	   12.5774
    2.9068 	   20.3465 	   23.0000 	   16.0000 	   12.7204
    2.9526 	   20.4185 	   23.0000 	   16.0000 	   12.8644
    2.8763 	   20.4915 	   23.0000 	   16.0000 	   13.0104
    3.0594 	   20.5640 	   23.0000 	   16.0000 	   13.1554
    2.8305 	   20.6365 	   23.0000 	   16.0000 	   13.3004
    2.8000 	   20.7090 	   23.0000 	   16.0000 	   13.4455
    2.9831 	   20.7805 	   23.0000 	   16.0000 	   13.5885
    3.0137 	   20.8520 	   23.0000 	   16.0000 	   13.7315
    2.8763 	   20.9200 	   23.0000 	   16.0000 	   13.8675
    2.8611 	   20.9920 	   23.0000 	   16.0000 	   14.0115
    2.9526 	   21.0635 	   23.0000 	   16.0000 	   14.1545
    2.9679 	   21.1355 	   23.0000 	   16.0000 	   14.2985
    2.8458 	   21.2080 	   23.0000 	   16.0000 	   14.4435
    2.9831 	   21.2800 	   23.0000 	   16.0000 	   14.5875
    2.9831 	   21.3535 	   23.0000 	   16.0000 	   14.7345
    3.1357 	   21.4250 	   23.0000 	   16.0000 	   14.8775
    2.9526 	   21.4955 	   23.0000 	   16.0000 	   15.0185
    3.0442 	   21.5695 	   23.0000 	   16.0000 	   15.1665
    3.1815 	   21.6355 	   23.0000 	   16.0000 	   15.2986
    2.9526 	   21.7040 	   23.0000 	   16.0000 	   15.4356
    2.9526 	   21.7755 	   23.0000 	   16.0000 	   15.5786
    2.9831 	   21.8530 	   23.0000 	   16.0000 	   15.7336
    3.2731 	   21.9250 	   23.0000 	   16.0000 	   15.8776
    2.9831 	   21.9995 	   23.0000 	   16.0000 	   16.0266
    3.1510 	   22.0715 	   23.0000 	   16.0000 	   16.1706
    3.0442 	   22.1375 	   23.0000 	   16.0000 	   16.3026
    3.0289 	   22.2095 	   23.0000 	   16.0000 	   16.4466
    3.0442 	   22.2810 	   23.0000 	   16.0000 	   16.5896
    3.0137 	   22.3535 	   23.0000 	   16.0000 	   16.7346
    3.0900 	   22.4250 	   23.0000 	   16.0000 	   16.8776
    3.0137 	   22.4980 	   23.0000 	   16.0000 	   17.0237
    2.8763 	   22.5720 	   23.0000 	   16.0000 	   17.1717
    3.1205 	   22.6450 	   23.0000 	   16.0000 	   17.3177
    3.1052 	   22.7175 	   23.0000 	   16.0000 	   17.4627
    3.1815 	   22.7890 	   23.0000 	   16.0000 	   17.6057
    2.8611 	   22.8680 	   23.0000 	   16.0000 	   17.7637
    3.1052 	   22.9405 	   23.0000 	   16.0000 	   17.9087
    3.1510 	   23.0130 	   23.0000 	   16.0000 	   18.0537
    3.2883 	   23.0885 	   23.0000 	   16.0000 	   18.2047
    3.0900 	   23.1610 	   23.0000 	   16.0000 	   18.3497
    3.1052 	   23.2330 	   23.0000 	   16.0000 	   18.4937
    3.2883 	   23.3065 	   23.0000 	   16.0000 	   18.6407
    3.2273 	   23.3805 	   23.0000 	   16.0000 	   18.7888
    3.2120 	   23.4530 	   23.0000 	   16.0000 	   18.9338
    3.1968 	   23.5260 	   23.0000 	   16.0000 	   19.0798
    3.1968 	   23.6030 	   23.0000 	   16.0000 	   19.2338
    3.1968 	   23.6750 	   23.0000 	   16.0000 	   19.3778
    3.2120 	   23.7505 	   23.0000 	   16.0000 	   19.5288
    3.2578 	   23.8230 	   23.0000 	   16.0000 	   19.6728
    3.1510 	   23.8960 	   23.0000 	   16.0000 	   19.8188
    3.1968 	   23.9705 	   23.0000 	   16.0000 	   19.9678
    3.2425 	   24.0465 	   23.0000 	   16.0000 	   20.1198
    3.2578 	   24.1185 	   23.0000 	   16.0000 	   20.2638
    3.3036 	   24.1910 	   23.0000 	   16.0000 	   20.4088
    3.3646 	   24.2575 	   23.0000 	   16.0000 	   20.5419
    3.3951 	   24.3275 	   23.0000 	   16.0000 	   20.6819
    3.1815 	   24.4005 	   23.0000 	   16.0000 	   20.8279
    3.2883 	   24.4740 	   23.0000 	   16.0000 	   20.9749
    3.4104 	   24.5530 	   23.0000 	   16.0000 	   21.1329
    3.3036 	   24.6250 	   23.0000 	   16.0000 	   21.2769
    3.3799 	   24.6980 	   23.0000 	   16.0000 	   21.4229
    3.4257 	   24.7735 	   23.0000 	   16.0000 	   21.5739
    3.2731 	   24.8530 	   23.0000 	   16.0000 	   21.7329
    3.4257 	   24.9275 	   23.0000 	   16.0000 	   21.8819
    3.5477 	   25.0000 	   23.0000 	   16.0000 	   22.0269
    3.5477 	   25.0765 	   23.0000 	   16.0000 	   22.1800
    3.4257 	   25.1505 	   23.0000 	   16.0000 	   22.3280
    3.4409 	   25.2230 	   23.0000 	   16.0000 	   22.4730
    3.3494 	   25.2965 	   23.0000 	   16.0000 	   22.6200
    3.4257 	   25.3710 	   23.0000 	   16.0000 	   22.7690
    3.4867 	   25.4440 	   23.0000 	   16.0000 	   22.9150
    3.4714 	   25.5185 	   23.0000 	   16.0000 	   23.0640
    3.4867 	   25.5935 	   23.0000 	   16.0000 	   23.2140
    3.5325 	   25.6670 	   23.0000 	   16.0000 	   23.3610
    3.4867 	   25.7390 	   23.0000 	   16.0000 	   23.5050
    3.3799 	   25.8155 	   23.0000 	   16.0000 	   23.6580
    3.4867 	   25.8930 	   23.0000 	   16.0000 	   23.8130
    3.5019 	   25.9685 	   23.0000 	   16.0000 	   23.9641
    3.4867 	   26.0445 	   23.0000 	   16.0000 	   24.1161
    3.4562 	   26.1190 	   23.0000 	   16.0000 	   24.2651
    3.5782 	   26.1940 	   23.0000 	   16.0000 	   24.4151
    3.5172 	   26.2685 	   23.0000 	   16.0000 	   24.5641
    3.5019 	   26.3400 	   23.0000 	   16.0000 	   24.7071
    3.5325 	   26.4105 	   23.0000 	   16.0000 	   24.8481
    3.4409 	   26.4840 	   23.0000 	   16.0000 	   24.9951
    3.4867 	   26.5550 	   23.0000 	   16.0000 	   25.1371
    3.5477 	   26.6280 	   23.0000 	   16.0000 	   25.2831
    3.5630 	   26.6990 	   23.0000 	   16.0000 	   25.4241
    3.7156 	   26.7725 	   23.0000 	   16.0000 	   25.5721
    3.5477 	   26.8540 	   23.0000 	   16.0000 	   25.7352
    3.5325 	   26.9285 	   23.0000 	   16.0000 	   25.8842
    3.6698 	   27.0035 	   23.0000 	   16.0000 	   26.0342
    3.5935 	   27.0795 	   23.0000 	   16.0000 	   26.1862
    3.5935 	   27.1540 	   23.0000 	   16.0000 	   26.3352
    3.6698 	   27.2295 	   23.0000 	   16.0000 	   26.4862
    3.5325 	   27.3030 	   23.0000 	   16.0000 	   26.6332
    3.6088 	   27.3750 	   23.0000 	   16.0000 	   26.7772
    3.4867 	   27.4470 	   23.0000 	   16.0000 	   26.9212
    3.7919 	   27.5210 	   23.0000 	   16.0000 	   27.0692
    3.7003 	   27.5990 	   23.0000 	   16.0000 	   27.2252
    3.5782 	   27.6745 	   23.0000 	   16.0000 	   27.3762
    3.8224 	   27.7475 	   23.0000 	   16.0000 	   27.5223
    3.7613 	   27.8215 	   23.0000 	   16.0000 	   27.6703
    3.7156 	   27.8950 	   23.0000 	   16.0000 	   27.8173
    3.6393 	   27.9705 	   23.0000 	   16.0000 	   27.9683
    3.8071 	   28.0450 	   23.0000 	   16.0000 	   28.1173
    3.6088 	   28.1200 	   23.0000 	   16.0000 	   28.2673
    3.8529 	   28.1950 	   23.0000 	   16.0000 	   28.4173
    3.7613 	   28.2685 	   23.0000 	   16.0000 	   28.5643
    3.7919 	   28.3435 	   23.0000 	   16.0000 	   28.7143
    3.7613 	   28.4185 	   23.0000 	   16.0000 	   28.8643
    3.7003 	   28.4940 	   23.0000 	   16.0000 	   29.0153
    3.4714 	   28.5715 	   23.0000 	   16.0000 	   29.1703
    3.8224 	   28.6450 	   23.0000 	   16.0000 	   29.3174
    3.7156 	   28.7220 	   23.0000 	   16.0000 	   29.4714
    3.6698 	   28.7950 	   23.0000 	   16.0000 	   29.6174
    4.0055 	   28.8695 	   23.0000 	   16.0000 	   29.7664
    3.8834 	   28.9450 	   23.0000 	   16.0000 	   29.9174
    3.9292 	   29.0205 	   23.0000 	   16.0000 	   30.0684
    3.8834 	   29.0960 	   23.0000 	   16.0000 	   30.2194
    3.9597 	   29.1725 	   23.0000 	   16.0000 	   30.3724
    3.7919 	   29.2440 	   23.0000 	   16.0000 	   30.5154
    4.0208 	   29.3215 	   23.0000 	   16.0000 	   30.6704
    3.9597 	   29.3965 	   23.0000 	   16.0000 	   30.8204
    3.9292 	   29.4705 	   23.0000 	   16.0000 	   30.9685
    4.0208 	   29.5480 	   23.0000 	   16.0000 	   31.1235
    3.9139 	   29.6230 	   23.0000 	   16.0000 	   31.2725
    3.8834 	   29.6980 	   23.0000 	   16.0000 	   31.4235
    4.0055 	   29.7735 	   23.0000 	   16.0000 	   31.5745
    3.9292 	   29.8540 	   23.0000 	   16.0000 	   31.7355
    3.9292 	   29.9270 	   23.0000 	   16.0000 	   31.8815
    4.0360 	   30.0025 	   23.0000 	   16.0000 	   32.0325
    4.0208 	   30.0780 	   23.0000 	   16.0000 	   32.1835
    4.0665 	   30.1560 	   23.0000 	   16.0000 	   32.3395
    4.1428 	   30.2330 	   23.0000 	   16.0000 	   32.4935
    4.0818 	   30.3100 	   23.0000 	   16.0000 	   32.6475
    4.0818 	   30.3860 	   23.0000 	   16.0000 	   32.7996
    3.9139 	   30.4610 	   23.0000 	   16.0000 	   32.9496
    3.9902 	   30.5390 	   23.0000 	   16.0000 	   33.1056
    4.0665 	   30.6155 	   23.0000 	   16.0000 	   33.2586
    4.0208 	   30.6925 	   23.0000 	   16.0000 	   33.4126
    4.2344 	   30.7690 	   23.0000 	   16.0000 	   33.5656
    4.0665 	   30.8535 	   23.0000 	   16.0000 	   33.7346
    4.1123 	   30.9275 	   23.0000 	   16.0000 	   33.8826
    4.0513 	   31.0055 	   23.0000 	   16.0000 	   34.0386
    4.0970 	   31.0810 	   23.0000 	   16.0000 	   34.1896
    4.1581 	   31.1575 	   23.0000 	   16.0000 	   34.3426
    4.0513 	   31.2325 	   23.0000 	   16.0000 	   34.4927
    4.2344 	   31.3075 	   23.0000 	   16.0000 	   34.6427
    4.0818 	   31.3780 	   23.0000 	   16.0000 	   34.7837
    4.1886 	   31.4550 	   23.0000 	   16.0000 	   34.9377
    4.0970 	   31.5305 	   23.0000 	   16.0000 	   35.0887
    4.1123 	   31.6065 	   23.0000 	   16.0000 	   35.2407
    4.1886 	   31.6815 	   23.0000 	   16.0000 	   35.3907
    4.2039 	   31.7585 	   23.0000 	   16.0000 	   35.5447
    4.1581 	   31.8365 	   23.0000 	   16.0000 	   35.7007
    4.3259 	   31.9140 	   23.0000 	   16.0000 	   35.8557
    4.2344 	   31.9900 	   23.0000 	   16.0000 	   36.0077
    4.2496 	   32.0685 	   23.0000 	   16.0000 	   36.1647
    4.3717 	   32.1440 	   23.0000 	   16.0000 	   36.3158
    4.2649 	   32.2200 	   23.0000 	   16.0000 	   36.4678
    4.2496 	   32.2955 	   23.0000 	   16.0000 	   36.6188
    4.1886 	   32.3645 	   23.0000 	   16.0000 	   36.7568
    4.2496 	   32.4395 	   23.0000 	   16.0000 	   36.9068
    4.3717 	   32.5140 	   23.0000 	   16.0000 	   37.0558
    4.2496 	   32.5935 	   23.0000 	   16.0000 	   37.2138
    4.2344 	   32.6715 	   23.0000 	   16.0000 	   37.3698
    4.0665 	   32.7465 	   23.0000 	   16.0000 	   37.5198
    4.4327 	   32.8230 	   23.0000 	   16.0000 	   37.6728
    4.2191 	   32.9005 	   23.0000 	   16.0000 	   37.8278
    4.3107 	   32.9760 	   23.0000 	   16.0000 	   37.9789
    4.1428 	   33.0545 	   23.0000 	   16.0000 	   38.1359
    4.3259 	   33.1330 	   23.0000 	   16.0000 	   38.2929
    4.3565 	   33.2115 	   23.0000 	   16.0000 	   38.4499
    4.3717 	   33.2905 	   23.0000 	   16.0000 	   38.6079
    4.4022 	   33.3705 	   23.0000 	   16.0000 	   38.7679
    4.3717 	   33.4465 	   23.0000 	   16.0000 	   38.9199
    4.3870 	   33.5210 	   23.0000 	   16.0000 	   39.0689
    4.4785 	   33.6000 	   23.0000 	   16.0000 	   39.2269
    4.4327 	   33.6775 	   23.0000 	   16.0000 	   39.3819
    4.4480 	   33.7555 	   23.0000 	   16.0000 	   39.5379
    4.4022 	   33.8360 	   23.0000 	   16.0000 	   39.6990
    4.1428 	   33.9140 	   23.0000 	   16.0000 	   39.8550
    4.5090 	   33.9915 	   23.0000 	   16.0000 	   40.0100
    4.3717 	   34.0705 	   23.0000 	   16.0000 	   40.1680
    4.4938 	   34.1470 	   23.0000 	   16.0000 	   40.3210
    4.5853 	   34.2250 	   23.0000 	   16.0000 	   40.4770
    4.4785 	   34.3015 	   23.0000 	   16.0000 	   40.6300
    4.5090 	   34.3790 	   23.0000 	   16.0000 	   40.7850
    4.6006 	   34.4570 	   23.0000 	   16.0000 	   40.9410
    4.6464 	   34.5315 	   23.0000 	   16.0000 	   41.0900
    4.5090 	   34.6075 	   23.0000 	   16.0000 	   41.2420
    4.5243 	   34.6850 	   23.0000 	   16.0000 	   41.3970
    4.6311 	   34.7640 	   23.0000 	   16.0000 	   41.5551
    4.6006 	   34.8430 	   23.0000 	   16.0000 	   41.7121
    4.5701 	   34.9210 	   23.0000 	   16.0000 	   41.8691
    4.5548 	   34.9980 	   23.0000 	   16.0000 	   42.0231
    4.6159 	   35.0755 	   23.0000 	   16.0000 	   42.1781
    4.5548 	   35.1530 	   23.0000 	   16.0000 	   42.3331
    4.6616 	   35.2315 	   23.0000 	   16.0000 	   42.4901
    4.5548 	   35.3095 	   23.0000 	   16.0000 	   42.6461
    4.7379 	   35.3880 	   23.0000 	   16.0000 	   42.8031
    4.7074 	   35.4645 	   23.0000 	   16.0000 	   42.9561
    4.7837 	   35.5420 	   23.0000 	   16.0000 	   43.1111
    4.6769 	   35.6210 	   23.0000 	   16.0000 	   43.2692
    4.4938 	   35.7000 	   23.0000 	   16.0000 	   43.4272
    4.8142 	   35.7765 	   23.0000 	   16.0000 	   43.5802
    4.7532 	   35.8550 	   23.0000 	   16.0000 	   43.7372
    4.6769 	   35.9325 	   23.0000 	   16.0000 	   43.8922
    4.7532 	   36.0105 	   23.0000 	   16.0000 	   44.0482
    4.8905 	   36.0905 	   23.0000 	   16.0000 	   44.2082
    4.8905 	   36.1665 	   23.0000 	   16.0000 	   44.3602
    4.7837 	   36.2435 	   23.0000 	   16.0000 	   44.5142
    4.7227 	   36.3130 	   23.0000 	   16.0000 	   44.6532
    4.7990 	   36.3825 	   23.0000 	   16.0000 	   44.7922
    4.8295 	   36.4565 	   23.0000 	   16.0000 	   44.9403
    4.7074 	   36.5345 	   23.0000 	   16.0000 	   45.0963
    4.9363 	   36.6080 	   23.0000 	   16.0000 	   45.2433
    4.8600 	   36.6785 	   23.0000 	   16.0000 	   45.3843
    4.8295 	   36.7540 	   23.0000 	   16.0000 	   45.5353
    4.9210 	   36.8350 	   23.0000 	   16.0000 	   45.6973
    4.9363 	   36.9145 	   23.0000 	   16.0000 	   45.8563
    4.5853 	   36.9940 	   23.0000 	   16.0000 	   46.0153
    4.9821 	   37.0720 	   23.0000 	   16.0000 	   46.1713
    5.0278 	   37.1495 	   23.0000 	   16.0000 	   46.3263
    4.9516 	   37.2280 	   23.0000 	   16.0000 	   46.4833
    4.8447 	   37.3040 	   23.0000 	   16.0000 	   46.6353
    4.9516 	   37.3820 	   23.0000 	   16.0000 	   46.7914
    4.9668 	   37.4590 	   23.0000 	   16.0000 	   46.9454
    4.9821 	   37.5375 	   23.0000 	   16.0000 	   47.1024
    4.9363 	   37.6190 	   23.0000 	   16.0000 	   47.2654
    5.1041 	   37.6995 	   23.0000 	   16.0000 	   47.4264
    4.9973 	   37.7785 	   23.0000 	   16.0000 	   47.5844
    5.0736 	   37.8565 	   23.0000 	   16.0000 	   47.7404
    5.1957 	   37.9350 	   23.0000 	   16.0000 	   47.8974
    5.0736 	   38.0100 	   23.0000 	   16.0000 	   48.0474
    5.1041 	   38.0840 	   23.0000 	   16.0000 	   48.1954
    4.9210 	   38.1585 	   23.0000 	   16.0000 	   48.3444
    5.0889 	   38.2395 	   23.0000 	   16.0000 	   48.5065
    5.2415 	   38.3185 	   23.0000 	   16.0000 	   48.6645
    5.0736 	   38.3980 	   23.0000 	   16.0000 	   48.8235
    5.1652 	   38.4775 	   23.0000 	   16.0000 	   48.9825
    5.2567 	   38.5580 	   23.0000 	   16.0000 	   49.1435
    5.1194 	   38.6370 	   23.0000 	   16.0000 	   49.3015
    5.1804 	   38.7160 	   23.0000 	   16.0000 	   49.4595
    5.1957 	   38.7950 	   23.0000 	   16.0000 	   49.6175
    5.3178 	   38.8760 	   23.0000 	   16.0000 	   49.7795
    5.3788 	   38.9600 	   23.0000 	   16.0000 	   49.9475
    5.2110 	   39.0400 	   23.0000 	   16.0000 	   50.1075
    5.2262 	   39.1185 	   23.0000 	   16.0000 	   50.2646
    5.2262 	   39.1975 	   23.0000 	   16.0000 	   50.4226
    5.4704 	   39.2750 	   23.0000 	   16.0000 	   50.5776
    5.5619 	   39.3585 	   23.0000 	   16.0000 	   50.7446
    5.3635 	   39.4420 	   23.0000 	   16.0000 	   50.9116
    5.0278 	   39.5205 	   23.0000 	   16.0000 	   51.0686
    5.3483 	   39.5935 	   23.0000 	   16.0000 	   51.2146
    5.3635 	   39.6715 	   23.0000 	   16.0000 	   51.3706
    5.4704 	   39.7535 	   23.0000 	   16.0000 	   51.5346
    5.3178 	   39.8365 	   23.0000 	   16.0000 	   51.7006
    5.2873 	   39.9180 	   23.0000 	   16.0000 	   51.8636
    5.4398 	   39.9975 	   23.0000 	   16.0000 	   52.0227
    5.4246 	   40.0775 	   23.0000 	   16.0000 	   52.1827
    5.4246 	   40.1575 	   23.0000 	   16.0000 	   52.3427
    5.4398 	   40.2375 	   23.0000 	   16.0000 	   52.5027
    5.4246 	   40.3155 	   23.0000 	   16.0000 	   52.6587
    5.5619 	   40.3880 	   23.0000 	   16.0000 	   52.8037
    5.4856 	   40.4620 	   23.0000 	   16.0000 	   52.9517
    5.6229 	   40.5410 	   23.0000 	   16.0000 	   53.1097
    5.5772 	   40.6210 	   23.0000 	   16.0000 	   53.2697
    5.4246 	   40.7010 	   23.0000 	   16.0000 	   53.4297
    5.5314 	   40.7815 	   23.0000 	   16.0000 	   53.5907
    5.2720 	   40.8600 	   23.0000 	   16.0000 	   53.7478
    5.4398 	   40.9405 	   23.0000 	   16.0000 	   53.9088
    5.4704 	   41.0190 	   23.0000 	   16.0000 	   54.0658
    5.5924 	   41.0985 	   23.0000 	   16.0000 	   54.2248
    5.6382 	   41.1715 	   23.0000 	   16.0000 	   54.3708
    5.5467 	   41.2515 	   23.0000 	   16.0000 	   54.5308
    5.5772 	   41.3310 	   23.0000 	   16.0000 	   54.6888
    5.6992 	   41.4110 	   23.0000 	   16.0000 	   54.8488
    5.6687 	   41.4905 	   23.0000 	   16.0000 	   55.0078
    5.7908 	   41.5710 	   23.0000 	   16.0000 	   55.1688
    5.5619 	   41.6505 	   23.0000 	   16.0000 	   55.3278
    5.5009 	   41.7310 	   23.0000 	   16.0000 	   55.4889
    5.5772 	   41.8160 	   23.0000 	   16.0000 	   55.6589
    5.6992 	   41.8960 	   23.0000 	   16.0000 	   55.8189
    5.6229 	   41.9705 	   23.0000 	   16.0000 	   55.9679
    5.6229 	   42.0485 	   23.0000 	   16.0000 	   56.1239
    5.7145 	   42.1315 	   23.0000 	   16.0000 	   56.2899
    5.8061 	   42.2125 	   23.0000 	   16.0000 	   56.4519
    5.8671 	   42.2915 	   23.0000 	   16.0000 	   56.6099
    5.8518 	   42.3720 	   23.0000 	   16.0000 	   56.7709
    5.7755 	   42.4525 	   23.0000 	   16.0000 	   56.9319
    5.8824 	   42.5345 	   23.0000 	   16.0000 	   57.0959
    5.9739 	   42.6160 	   23.0000 	   16.0000 	   57.2590
    5.9892 	   42.6980 	   23.0000 	   16.0000 	   57.4230
    6.0044 	   42.7790 	   23.0000 	   16.0000 	   57.5850
    5.9586 	   42.8610 	   23.0000 	   16.0000 	   57.7490
    5.9434 	   42.9415 	   23.0000 	   16.0000 	   57.9100
    5.9281 	   43.0215 	   23.0000 	   16.0000 	   58.0700
    5.8671 	   43.1025 	   23.0000 	   16.0000 	   58.2320
    5.8976 	   43.1830 	   23.0000 	   16.0000 	   58.3930
    6.0502 	   43.2640 	   23.0000 	   16.0000 	   58.5550
    6.0044 	   43.3430 	   23.0000 	   16.0000 	   58.7130
    5.8366 	   43.4240 	   23.0000 	   16.0000 	   58.8750
    6.0197 	   43.5070 	   23.0000 	   16.0000 	   59.0411
    6.0807 	   43.5905 	   23.0000 	   16.0000 	   59.2081
    6.1875 	   43.6700 	   23.0000 	   16.0000 	   59.3671
    6.1570 	   43.7495 	   23.0000 	   16.0000 	   59.5261
    5.9129 	   43.8335 	   23.0000 	   16.0000 	   59.6941
    6.0655 	   43.9150 	   23.0000 	   16.0000 	   59.8571
    6.1265 	   43.9940 	   23.0000 	   17.0000 	    0.0151
    6.1570 	   44.0765 	   23.0000 	   17.0000 	    0.1801
    6.1418 	   44.1560 	   23.0000 	   17.0000 	    0.3391
    6.2638 	   44.2355 	   23.0000 	   17.0000 	    0.4981
    6.1570 	   44.3115 	   23.0000 	   17.0000 	    0.6502
    5.8366 	   44.3845 	   23.0000 	   17.0000 	    0.7962
    6.0960 	   44.4575 	   23.0000 	   17.0000 	    0.9422
    6.2028 	   44.5310 	   23.0000 	   17.0000 	    1.0892
    6.2486 	   44.6125 	   23.0000 	   17.0000 	    1.2522
    6.3096 	   44.6930 	   23.0000 	   17.0000 	    1.4132
    6.2638 	   44.7735 	   23.0000 	   17.0000 	    1.5742
    6.4775 	   44.8565 	   23.0000 	   17.0000 	    1.7402
    6.2333 	   44.9380 	   23.0000 	   17.0000 	    1.9032
    6.3706 	   45.0195 	   23.0000 	   17.0000 	    2.0662
    6.2791 	   45.1020 	   23.0000 	   17.0000 	    2.2312
    6.4012 	   45.1835 	   23.0000 	   17.0000 	    2.3943
    6.4622 	   45.2645 	   23.0000 	   17.0000 	    2.5563
    6.4622 	   45.3410 	   23.0000 	   17.0000 	    2.7093
    6.2791 	   45.4175 	   23.0000 	   17.0000 	    2.8623
    6.3401 	   45.4905 	   23.0000 	   17.0000 	    3.0083
    6.4164 	   45.5705 	   23.0000 	   17.0000 	    3.1683
    6.3554 	   45.6530 	   23.0000 	   17.0000 	    3.3333
    6.4317 	   45.7345 	   23.0000 	   17.0000 	    3.4963
    6.5537 	   45.8170 	   23.0000 	   17.0000 	    3.6613
    6.4775 	   45.8985 	   23.0000 	   17.0000 	    3.8243
    6.5843 	   45.9800 	   23.0000 	   17.0000 	    3.9873
    6.6453 	   46.0635 	   23.0000 	   17.0000 	    4.1544
    6.4469 	   46.1430 	   23.0000 	   17.0000 	    4.3134
    6.6300 	   46.2275 	   23.0000 	   17.0000 	    4.4824
    6.5537 	   46.3095 	   23.0000 	   17.0000 	    4.6464
    6.4012 	   46.3900 	   23.0000 	   17.0000 	    4.8074
    6.6606 	   46.4635 	   23.0000 	   17.0000 	    4.9544
    6.6758 	   46.5365 	   23.0000 	   17.0000 	    5.1004
    6.5843 	   46.6125 	   23.0000 	   17.0000 	    5.2524
    6.6606 	   46.6940 	   23.0000 	   17.0000 	    5.4154
    6.6606 	   46.7775 	   23.0000 	   17.0000 	    5.5824
    6.6300 	   46.8605 	   23.0000 	   17.0000 	    5.7484
    6.7979 	   46.9420 	   23.0000 	   17.0000 	    5.9115
    6.6911 	   47.0245 	   23.0000 	   17.0000 	    6.0765
    6.7063 	   47.1090 	   23.0000 	   17.0000 	    6.2455
    6.4775 	   47.1930 	   23.0000 	   17.0000 	    6.4135
    6.5232 	   47.2670 	   23.0000 	   17.0000 	    6.5615
    6.8589 	   47.3405 	   23.0000 	   17.0000 	    6.7085
    6.8284 	   47.4210 	   23.0000 	   17.0000 	    6.8695
    6.6758 	   47.4965 	   23.0000 	   17.0000 	    7.0205
    6.8284 	   47.5715 	   23.0000 	   17.0000 	    7.1705
    6.8284 	   47.6470 	   23.0000 	   17.0000 	    7.3215
    6.7674 	   47.7225 	   23.0000 	   17.0000 	    7.4725
    6.8742 	   47.8045 	   23.0000 	   17.0000 	    7.6366
    6.9200 	   47.8865 	   23.0000 	   17.0000 	    7.8006
    6.8742 	   47.9685 	   23.0000 	   17.0000 	    7.9646
    6.9810 	   48.0520 	   23.0000 	   17.0000 	    8.1316
    6.9352 	   48.1355 	   23.0000 	   17.0000 	    8.2986
    7.0573 	   48.2190 	   23.0000 	   17.0000 	    8.4656
    6.9505 	   48.3030 	   23.0000 	   17.0000 	    8.6336
    6.9810 	   48.3845 	   23.0000 	   17.0000 	    8.7966
    7.0573 	   48.4660 	   23.0000 	   17.0000 	    8.9596
    7.2404 	   48.5475 	   23.0000 	   17.0000 	    9.1226
    7.0268 	   48.6300 	   23.0000 	   17.0000 	    9.2876
    6.9963 	   48.7050 	   23.0000 	   17.0000 	    9.4377
    7.1183 	   48.7880 	   23.0000 	   17.0000 	    9.6037
    7.2557 	   48.8770 	   23.0000 	   17.0000 	    9.7817
    7.1489 	   48.9600 	   23.0000 	   17.0000 	    9.9477
    7.1489 	   49.0450 	   23.0000 	   17.0000 	   10.1177
    7.3320 	   49.1285 	   23.0000 	   17.0000 	   10.2847
    7.2862 	   49.2125 	   23.0000 	   17.0000 	   10.4527
    7.3320 	   49.2930 	   23.0000 	   17.0000 	   10.6137
    7.2251 	   49.3715 	   23.0000 	   17.0000 	   10.7707
    7.2557 	   49.4530 	   23.0000 	   17.0000 	   10.9337
    7.1946 	   49.5365 	   23.0000 	   17.0000 	   11.1007
    7.2862 	   49.6200 	   23.0000 	   17.0000 	   11.2678
    7.2557 	   49.7040 	   23.0000 	   17.0000 	   11.4358
    7.3930 	   49.7845 	   23.0000 	   17.0000 	   11.5968
    6.9810 	   49.8680 	   23.0000 	   17.0000 	   11.7638
    7.4235 	   49.9435 	   23.0000 	   17.0000 	   11.9148
    7.5151 	   50.0185 	   23.0000 	   17.0000 	   12.0648
    7.4693 	   50.0950 	   23.0000 	   17.0000 	   12.2168
    7.4388 	   50.1695 	   23.0000 	   17.0000 	   12.3658
    7.4083 	   50.2500 	   23.0000 	   17.0000 	   12.5268
    7.5608 	   50.3330 	   23.0000 	   17.0000 	   12.6928
    7.3777 	   50.4180 	   23.0000 	   17.0000 	   12.8628
    7.4235 	   50.5010 	   23.0000 	   17.0000 	   13.0289
    7.6982 	   50.5850 	   23.0000 	   17.0000 	   13.1969
    7.5608 	   50.6685 	   23.0000 	   17.0000 	   13.3639
    7.6829 	   50.7520 	   23.0000 	   17.0000 	   13.5309
    7.7287 	   50.8380 	   23.0000 	   17.0000 	   13.7029
    7.6982 	   50.9195 	   23.0000 	   17.0000 	   13.8659
    7.6677 	   51.0045 	   23.0000 	   17.0000 	   14.0359
    7.7440 	   51.0880 	   23.0000 	   17.0000 	   14.2029
    7.7745 	   51.1705 	   23.0000 	   17.0000 	   14.3679
    7.6371 	   51.2545 	   23.0000 	   17.0000 	   14.5359
    7.7592 	   51.3380 	   23.0000 	   17.0000 	   14.7030
    7.7592 	   51.4200 	   23.0000 	   17.0000 	   14.8670
    7.7440 	   51.5045 	   23.0000 	   17.0000 	   15.0360
    7.7745 	   51.5885 	   23.0000 	   17.0000 	   15.2040
    7.8202 	   51.6720 	   23.0000 	   17.0000 	   15.3710
    7.8508 	   51.7550 	   23.0000 	   17.0000 	   15.5370
    8.0034 	   51.8395 	   23.0000 	   17.0000 	   15.7060
    8.0186 	   51.9240 	   23.0000 	   17.0000 	   15.8750
    7.8813 	   52.0005 	   23.0000 	   17.0000 	   16.0280
    8.1254 	   52.0865 	   23.0000 	   17.0000 	   16.2000
    7.9728 	   52.1710 	   23.0000 	   17.0000 	   16.3690
    8.0797 	   52.2560 	   23.0000 	   17.0000 	   16.5391
    7.9881 	   52.3380 	   23.0000 	   17.0000 	   16.7031
    8.1865 	   52.4165 	   23.0000 	   17.0000 	   16.8601
    8.1254 	   52.5010 	   23.0000 	   17.0000 	   17.0291
    8.0949 	   52.5840 	   23.0000 	   17.0000 	   17.1951
    8.1712 	   52.6680 	   23.0000 	   17.0000 	   17.3631
    8.1102 	   52.7515 	   23.0000 	   17.0000 	   17.5301
    8.0949 	   52.8370 	   23.0000 	   17.0000 	   17.7011
    8.2322 	   52.9210 	   23.0000 	   17.0000 	   17.8691
    8.1407 	   53.0055 	   23.0000 	   17.0000 	   18.0381
    8.2017 	   53.0915 	   23.0000 	   17.0000 	   18.2102
    8.2170 	   53.1745 	   23.0000 	   17.0000 	   18.3762
    8.3238 	   53.2560 	   23.0000 	   17.0000 	   18.5392
    8.2170 	   53.3405 	   23.0000 	   17.0000 	   18.7082
    8.2933 	   53.4235 	   23.0000 	   17.0000 	   18.8742
    8.4459 	   53.5095 	   23.0000 	   17.0000 	   19.0462
    8.3238 	   53.5935 	   23.0000 	   17.0000 	   19.2142
    8.2475 	   53.6770 	   23.0000 	   17.0000 	   19.3812
    8.3391 	   53.7595 	   23.0000 	   17.0000 	   19.5462
    8.4764 	   53.8445 	   23.0000 	   17.0000 	   19.7162
    8.5222 	   53.9275 	   23.0000 	   17.0000 	   19.8823
    8.5527 	   54.0100 	   23.0000 	   17.0000 	   20.0473
    8.7053 	   54.0955 	   23.0000 	   17.0000 	   20.2183
    8.4459 	   54.1835 	   23.0000 	   17.0000 	   20.3943
    8.5222 	   54.2695 	   23.0000 	   17.0000 	   20.5663
    8.5832 	   54.3525 	   23.0000 	   17.0000 	   20.7323
    8.5222 	   54.4360 	   23.0000 	   17.0000 	   20.8993
    8.7205 	   54.5205 	   23.0000 	   17.0000 	   21.0683
    8.7053 	   54.6035 	   23.0000 	   17.0000 	   21.2343
    8.5222 	   54.6870 	   23.0000 	   17.0000 	   21.4013
    8.6595 	   54.7735 	   23.0000 	   17.0000 	   21.5743
    8.9036 	   54.8585 	   23.0000 	   17.0000 	   21.7444
    8.7968 	   54.9410 	   23.0000 	   17.0000 	   21.9094
    8.7968 	   55.0245 	   23.0000 	   17.0000 	   22.0764
    8.8273 	   55.1085 	   23.0000 	   17.0000 	   22.2444
    8.9799 	   55.1920 	   23.0000 	   17.0000 	   22.4114
    8.7358 	   55.2755 	   23.0000 	   17.0000 	   22.5784
    8.8273 	   55.3585 	   23.0000 	   17.0000 	   22.7444
    9.0257 	   55.4430 	   23.0000 	   17.0000 	   22.9134
    8.9799 	   55.5305 	   23.0000 	   17.0000 	   23.0884
    8.9189 	   55.6155 	   23.0000 	   17.0000 	   23.2584
    8.9952 	   55.6990 	   23.0000 	   17.0000 	   23.4255
    8.9952 	   55.7785 	   23.0000 	   17.0000 	   23.5845
    9.1173 	   55.8590 	   23.0000 	   17.0000 	   23.7455
    9.1783 	   55.9365 	   23.0000 	   17.0000 	   23.9005
    9.0410 	   56.0160 	   23.0000 	   17.0000 	   24.0595
    9.1478 	   56.1055 	   23.0000 	   17.0000 	   24.2385
    9.2241 	   56.1880 	   23.0000 	   17.0000 	   24.4035
    9.1478 	   56.2665 	   23.0000 	   17.0000 	   24.5605
    9.2088 	   56.3505 	   23.0000 	   17.0000 	   24.7285
    9.1020 	   56.4370 	   23.0000 	   17.0000 	   24.9015
    9.3309 	   56.5225 	   23.0000 	   17.0000 	   25.0725
    9.4072 	   56.6080 	   23.0000 	   17.0000 	   25.2436
    9.2851 	   56.6950 	   23.0000 	   17.0000 	   25.4176
    9.3919 	   56.7810 	   23.0000 	   17.0000 	   25.5896
    9.2546 	   56.8675 	   23.0000 	   17.0000 	   25.7626
    9.3919 	   56.9530 	   23.0000 	   17.0000 	   25.9336
    9.4987 	   57.0380 	   23.0000 	   17.0000 	   26.1036
    9.5598 	   57.1250 	   23.0000 	   17.0000 	   26.2776
    9.4682 	   57.2090 	   23.0000 	   17.0000 	   26.4456
    9.4530 	   57.2945 	   23.0000 	   17.0000 	   26.6166
    9.6666 	   57.3795 	   23.0000 	   17.0000 	   26.7866
    9.6513 	   57.4670 	   23.0000 	   17.0000 	   26.9617
    9.5750 	   57.5515 	   23.0000 	   17.0000 	   27.1307
    9.5903 	   57.6365 	   23.0000 	   17.0000 	   27.3007
    9.5445 	   57.7205 	   23.0000 	   17.0000 	   27.4687
    9.7887 	   57.8060 	   23.0000 	   17.0000 	   27.6397
    9.5293 	   57.8865 	   23.0000 	   17.0000 	   27.8007
    9.8039 	   57.9680 	   23.0000 	   17.0000 	   27.9637
    9.8192 	   58.0560 	   23.0000 	   17.0000 	   28.1397
    9.6818 	   58.1410 	   23.0000 	   17.0000 	   28.3097
    9.9107 	   58.2550 	   23.0000 	   17.0000 	   28.5377
    9.9870 	   58.3355 	   23.0000 	   17.0000 	   28.6988
    9.9260 	   58.4135 	   23.0000 	   17.0000 	   28.8548
    9.8192 	   58.4910 	   23.0000 	   17.0000 	   29.0098
   10.0328 	   58.5705 	   23.0000 	   17.0000 	   29.1688
   10.1244 	   58.6560 	   23.0000 	   17.0000 	   29.3398
    9.9870 	   58.7410 	   23.0000 	   17.0000 	   29.5098
    9.9870 	   58.8280 	   23.0000 	   17.0000 	   29.6828
   10.0633 	   58.9160 	   23.0000 	   17.0000 	   29.8588
    9.7734 	   59.0035 	   23.0000 	   17.0000 	   30.0338
   10.2007 	   59.0895 	   23.0000 	   17.0000 	   30.2058
   10.1244 	   59.1755 	   23.0000 	   17.0000 	   30.3779
   10.2159 	   59.2530 	   23.0000 	   17.0000 	   30.5329
   10.1549 	   59.3340 	   23.0000 	   17.0000 	   30.6949
   10.1396 	   59.4150 	   23.0000 	   17.0000 	   30.8569
   10.3532 	   59.5010 	   23.0000 	   17.0000 	   31.0289
   10.2617 	   59.5890 	   23.0000 	   17.0000 	   31.2049
   10.4295 	   59.6760 	   23.0000 	   17.0000 	   31.3789
   10.4143 	   59.7635 	   23.0000 	   17.0000 	   31.5539
   10.3532 	   59.8490 	   23.0000 	   17.0000 	   31.7249
   10.4448 	   59.8700 	   23.0000 	   17.0000 	   31.7669