File: instron/independence/hysterisis/bad_l15w3_pre5/b_l15w3_25_60_pre5_nonstop.txt
Thayer School of Engineering        Instron 4442 Mechanical Testing System
7/5/2018 5:31:22 AM

  Force (N)	Extension (mm)	Not Used	Not Used	Not Used	     Hour	    Minute	    Second
    0.8927 	    1.0280 	    5.0000 	   31.0000 	   44.8622
    0.9689 	    1.2930 	    5.0000 	   31.0000 	   45.1272
    0.8621 	    1.5270 	    5.0000 	   31.0000 	   45.3612
    0.7095 	    1.7470 	    5.0000 	   31.0000 	   45.5812
    0.8316 	    2.0070 	    5.0000 	   31.0000 	   45.8413
    0.9842 	    2.2600 	    5.0000 	   31.0000 	   46.0943
    0.7095 	    2.5170 	    5.0000 	   31.0000 	   46.3513
    0.8316 	    2.7720 	    5.0000 	   31.0000 	   46.6063
    0.9842 	    3.0290 	    5.0000 	   31.0000 	   46.8633
    0.8469 	    3.2160 	    5.0000 	   31.0000 	   47.0503
    0.9384 	    3.3570 	    5.0000 	   31.0000 	   47.1913
    0.8621 	    3.5290 	    5.0000 	   31.0000 	   47.3613
    0.9232 	    3.6690 	    5.0000 	   31.0000 	   47.5023
    0.9995 	    3.8140 	    5.0000 	   31.0000 	   47.6474
    0.8469 	    3.9830 	    5.0000 	   31.0000 	   47.8164
    0.9384 	    4.1500 	    5.0000 	   31.0000 	   47.9834
    0.6332 	    4.3080 	    5.0000 	   31.0000 	   48.1414
    0.9537 	    4.4710 	    5.0000 	   31.0000 	   48.3044
    0.8011 	    4.6190 	    5.0000 	   31.0000 	   48.4524
    0.8927 	    4.7520 	    5.0000 	   31.0000 	   48.5854
    0.8774 	    4.8980 	    5.0000 	   31.0000 	   48.7314
    0.9537 	    5.0650 	    5.0000 	   31.0000 	   48.8984
    1.1215 	    5.2320 	    5.0000 	   31.0000 	   49.0654
    1.0910 	    5.4200 	    5.0000 	   31.0000 	   49.2534
    0.9079 	    5.5740 	    5.0000 	   31.0000 	   49.4075
    0.9689 	    5.7090 	    5.0000 	   31.0000 	   49.5425
    0.9689 	    5.8410 	    5.0000 	   31.0000 	   49.6745
    1.0147 	    6.0030 	    5.0000 	   31.0000 	   49.8365
    0.9079 	    6.1570 	    5.0000 	   31.0000 	   49.9905
    0.9842 	    6.3120 	    5.0000 	   31.0000 	   50.1455
    1.1368 	    6.4710 	    5.0000 	   31.0000 	   50.3045
    0.8621 	    6.6220 	    5.0000 	   31.0000 	   50.4555
    0.9232 	    6.7600 	    5.0000 	   31.0000 	   50.5935
    0.9232 	    6.9040 	    5.0000 	   31.0000 	   50.7375
    1.1215 	    7.0550 	    5.0000 	   31.0000 	   50.8885
    1.0758 	    7.2150 	    5.0000 	   31.0000 	   51.0485
    0.9995 	    7.3750 	    5.0000 	   31.0000 	   51.2086
    1.0758 	    7.5370 	    5.0000 	   31.0000 	   51.3706
    1.0605 	    7.6840 	    5.0000 	   31.0000 	   51.5176
    1.0910 	    7.8150 	    5.0000 	   31.0000 	   51.6486
    0.9079 	    7.9710 	    5.0000 	   31.0000 	   51.8046
    1.0452 	    8.1360 	    5.0000 	   31.0000 	   51.9696
    1.0758 	    8.2910 	    5.0000 	   31.0000 	   52.1246
    1.1063 	    8.4460 	    5.0000 	   31.0000 	   52.2796
    0.9842 	    8.6000 	    5.0000 	   31.0000 	   52.4336
    1.0300 	    8.7480 	    5.0000 	   31.0000 	   52.5816
    1.1215 	    8.9010 	    5.0000 	   31.0000 	   52.7346
    1.0910 	    9.0560 	    5.0000 	   31.0000 	   52.8897
    1.2589 	    9.2120 	    5.0000 	   31.0000 	   53.0457
    1.0758 	    9.3640 	    5.0000 	   31.0000 	   53.1977
    1.2284 	    9.5210 	    5.0000 	   31.0000 	   53.3547
    0.8011 	    9.6680 	    5.0000 	   31.0000 	   53.5017
    1.1368 	    9.8090 	    5.0000 	   31.0000 	   53.6427
    1.1978 	    9.9540 	    5.0000 	   31.0000 	   53.7877
    1.1368 	   10.1140 	    5.0000 	   31.0000 	   53.9477
    1.1673 	   10.2730 	    5.0000 	   31.0000 	   54.1067
    1.1063 	   10.4320 	    5.0000 	   31.0000 	   54.2657
    1.1826 	   10.5860 	    5.0000 	   31.0000 	   54.4197
    1.4115 	   10.7310 	    5.0000 	   31.0000 	   54.5648
    1.2436 	   10.8730 	    5.0000 	   31.0000 	   54.7068
    1.1368 	   11.0350 	    5.0000 	   31.0000 	   54.8688
    1.2436 	   11.2040 	    5.0000 	   31.0000 	   55.0378
    1.2284 	   11.3700 	    5.0000 	   31.0000 	   55.2038
    1.2284 	   11.5300 	    5.0000 	   31.0000 	   55.3638
    1.3504 	   11.6860 	    5.0000 	   31.0000 	   55.5198
    1.1673 	   11.8240 	    5.0000 	   31.0000 	   55.6578
    1.1978 	   11.9730 	    5.0000 	   31.0000 	   55.8068
    1.2741 	   12.1380 	    5.0000 	   31.0000 	   55.9718
    1.1978 	   12.3040 	    5.0000 	   31.0000 	   56.1378
    1.2894 	   12.4740 	    5.0000 	   31.0000 	   56.3078
    1.2741 	   12.6310 	    5.0000 	   31.0000 	   56.4649
    1.2741 	   12.7770 	    5.0000 	   31.0000 	   56.6109
    1.2589 	   12.9230 	    5.0000 	   31.0000 	   56.7569
    1.2741 	   13.0900 	    5.0000 	   31.0000 	   56.9239
    1.3352 	   13.2530 	    5.0000 	   31.0000 	   57.0869
    1.3199 	   13.4200 	    5.0000 	   31.0000 	   57.2539
    1.3352 	   13.5750 	    5.0000 	   31.0000 	   57.4089
    1.3046 	   13.7200 	    5.0000 	   31.0000 	   57.5539
    1.2589 	   13.8590 	    5.0000 	   31.0000 	   57.6929
    1.4572 	   14.0020 	    5.0000 	   31.0000 	   57.8359
    1.3657 	   14.1670 	    5.0000 	   31.0000 	   57.9999
    1.5030 	   14.3280 	    5.0000 	   31.0000 	   58.1620
    1.3046 	   14.4880 	    5.0000 	   31.0000 	   58.3220
    1.5335 	   14.6480 	    5.0000 	   31.0000 	   58.4820
    1.5488 	   14.7880 	    5.0000 	   31.0000 	   58.6220
    1.4572 	   14.9440 	    5.0000 	   31.0000 	   58.7780
    1.5183 	   15.1100 	    5.0000 	   31.0000 	   58.9440
    1.6251 	   15.2710 	    5.0000 	   31.0000 	   59.1050
    1.4115 	   15.4370 	    5.0000 	   31.0000 	   59.2710
    1.4572 	   15.6050 	    5.0000 	   31.0000 	   59.4390
    1.4267 	   15.7510 	    5.0000 	   31.0000 	   59.5850
    1.6709 	   15.9010 	    5.0000 	   31.0000 	   59.7350
    1.5335 	   16.0610 	    5.0000 	   31.0000 	   59.8951
    1.5946 	   16.2210 	    5.0000 	   32.0000 	    0.0551
    1.5946 	   16.3870 	    5.0000 	   32.0000 	    0.2211
    1.6861 	   16.5510 	    5.0000 	   32.0000 	    0.3851
    1.6251 	   16.7150 	    5.0000 	   32.0000 	    0.5491
    1.5946 	   16.8590 	    5.0000 	   32.0000 	    0.6931
    1.6403 	   17.0180 	    5.0000 	   32.0000 	    0.8521
    1.4878 	   17.1870 	    5.0000 	   32.0000 	    1.0211
    1.7014 	   17.3510 	    5.0000 	   32.0000 	    1.1851
    1.4725 	   17.5070 	    5.0000 	   32.0000 	    1.3411
    1.6709 	   17.6710 	    5.0000 	   32.0000 	    1.5051
    1.6861 	   17.8150 	    5.0000 	   32.0000 	    1.6492
    1.3657 	   17.9630 	    5.0000 	   32.0000 	    1.7972
    1.7166 	   18.1260 	    5.0000 	   32.0000 	    1.9602
    1.7319 	   18.2900 	    5.0000 	   32.0000 	    2.1242
    1.7166 	   18.4550 	    5.0000 	   32.0000 	    2.2892
    1.7319 	   18.6240 	    5.0000 	   32.0000 	    2.4582
    1.7777 	   18.7770 	    5.0000 	   32.0000 	    2.6112
    1.8387 	   18.9190 	    5.0000 	   32.0000 	    2.7532
    1.7166 	   19.0850 	    5.0000 	   32.0000 	    2.9192
    1.8540 	   19.2430 	    5.0000 	   32.0000 	    3.0772
    1.7929 	   19.4030 	    5.0000 	   32.0000 	    3.2372
    1.8235 	   19.5740 	    5.0000 	   32.0000 	    3.4083
    1.9913 	   19.7350 	    5.0000 	   32.0000 	    3.5693
    1.7624 	   19.8830 	    5.0000 	   32.0000 	    3.7173
    1.8845 	   20.0420 	    5.0000 	   32.0000 	    3.8763
    1.7929 	   20.2080 	    5.0000 	   32.0000 	    4.0423
    1.8845 	   20.3740 	    5.0000 	   32.0000 	    4.2083
    2.1134 	   20.5330 	    5.0000 	   32.0000 	    4.3673
    2.0523 	   20.6850 	    5.0000 	   32.0000 	    4.5193
    2.0066 	   20.8320 	    5.0000 	   32.0000 	    4.6663
    2.1134 	   20.9820 	    5.0000 	   32.0000 	    4.8153
    2.0676 	   21.1430 	    5.0000 	   32.0000 	    4.9763
    2.1134 	   21.3100 	    5.0000 	   32.0000 	    5.1434
    2.0523 	   21.4730 	    5.0000 	   32.0000 	    5.3064
    1.8997 	   21.6410 	    5.0000 	   32.0000 	    5.4744
    1.9455 	   21.8010 	    5.0000 	   32.0000 	    5.6344
    2.1286 	   21.9530 	    5.0000 	   32.0000 	    5.7864
    2.0523 	   22.1250 	    5.0000 	   32.0000 	    5.9584
    2.1286 	   22.2880 	    5.0000 	   32.0000 	    6.1214
    2.2202 	   22.4560 	    5.0000 	   32.0000 	    6.2894
    2.1439 	   22.6270 	    5.0000 	   32.0000 	    6.4604
    2.1592 	   22.7870 	    5.0000 	   32.0000 	    6.6204
    2.2812 	   22.9410 	    5.0000 	   32.0000 	    6.7744
    2.2660 	   23.1120 	    5.0000 	   32.0000 	    6.9455
    2.2354 	   23.2780 	    5.0000 	   32.0000 	    7.1115
    2.3423 	   23.4440 	    5.0000 	   32.0000 	    7.2775
    2.2812 	   23.6130 	    5.0000 	   32.0000 	    7.4465
    2.3117 	   23.7690 	    5.0000 	   32.0000 	    7.6025
    2.3117 	   23.9170 	    5.0000 	   32.0000 	    7.7505
    2.2202 	   24.0810 	    5.0000 	   32.0000 	    7.9145
    2.3880 	   24.2450 	    5.0000 	   32.0000 	    8.0785
    2.3575 	   24.4120 	    5.0000 	   32.0000 	    8.2455
    2.4186 	   24.5800 	    5.0000 	   32.0000 	    8.4135
    2.3880 	   24.7390 	    5.0000 	   32.0000 	    8.5725
    2.3423 	   24.8910 	    5.0000 	   32.0000 	    8.7246
    2.3270 	   25.0380 	    5.0000 	   32.0000 	    8.8716
    2.5254 	   25.2060 	    5.0000 	   32.0000 	    9.0396
    2.4643 	   25.3760 	    5.0000 	   32.0000 	    9.2096
    2.5864 	   25.5360 	    5.0000 	   32.0000 	    9.3696
    2.4796 	   25.6950 	    5.0000 	   32.0000 	    9.5286
    2.6474 	   25.8500 	    5.0000 	   32.0000 	    9.6836
    2.5254 	   26.0030 	    5.0000 	   32.0000 	    9.8366
    2.5101 	   26.1760 	    5.0000 	   32.0000 	   10.0096
    2.6627 	   26.3430 	    5.0000 	   32.0000 	   10.1766
    2.6932 	   26.5200 	    5.0000 	   32.0000 	   10.3537
    2.5864 	   26.6880 	    5.0000 	   32.0000 	   10.5207
    2.8153 	   26.8390 	    5.0000 	   32.0000 	   10.6727
    2.6169 	   26.9890 	    5.0000 	   32.0000 	   10.8227
    2.5406 	   27.1610 	    5.0000 	   32.0000 	   10.9947
    2.6627 	   27.3310 	    5.0000 	   32.0000 	   11.1647
    2.6932 	   27.4980 	    5.0000 	   32.0000 	   11.3317
    2.9374 	   27.6690 	    5.0000 	   32.0000 	   11.5027
    2.6932 	   27.8240 	    5.0000 	   32.0000 	   11.6577
    2.7848 	   27.9740 	    5.0000 	   32.0000 	   11.8077
    2.8153 	   28.1290 	    5.0000 	   32.0000 	   11.9627
    2.9831 	   28.2780 	    5.0000 	   32.0000 	   12.1118
    2.8000 	   28.4320 	    5.0000 	   32.0000 	   12.2658
    2.7848 	   28.6000 	    5.0000 	   32.0000 	   12.4338
    3.0137 	   28.7540 	    5.0000 	   32.0000 	   12.5878
    2.9526 	   28.9110 	    5.0000 	   32.0000 	   12.7448
    3.1205 	   29.0740 	    5.0000 	   32.0000 	   12.9078
    3.1205 	   29.2500 	    5.0000 	   32.0000 	   13.0838
    2.9984 	   29.4180 	    5.0000 	   32.0000 	   13.2518
    3.1052 	   29.5920 	    5.0000 	   32.0000 	   13.4258
    3.1662 	   29.7560 	    5.0000 	   32.0000 	   13.5898
    3.0900 	   29.9070 	    5.0000 	   32.0000 	   13.7408
    2.8153 	   30.0720 	    5.0000 	   32.0000 	   13.9059
    3.0594 	   30.2440 	    5.0000 	   32.0000 	   14.0779
    3.1510 	   30.4100 	    5.0000 	   32.0000 	   14.2439
    3.2883 	   30.5640 	    5.0000 	   32.0000 	   14.3979
    3.2273 	   30.7210 	    5.0000 	   32.0000 	   14.5549
    3.3036 	   30.8750 	    5.0000 	   32.0000 	   14.7089
    3.1815 	   31.0340 	    5.0000 	   32.0000 	   14.8679
    3.1357 	   31.2100 	    5.0000 	   32.0000 	   15.0439
    3.4867 	   31.3800 	    5.0000 	   32.0000 	   15.2139
    3.3799 	   31.5440 	    5.0000 	   32.0000 	   15.3779
    3.4714 	   31.7110 	    5.0000 	   32.0000 	   15.5449
    3.3799 	   31.8720 	    5.0000 	   32.0000 	   15.7060
    3.3494 	   32.0270 	    5.0000 	   32.0000 	   15.8610
    3.5782 	   32.2000 	    5.0000 	   32.0000 	   16.0340
    3.5019 	   32.3730 	    5.0000 	   32.0000 	   16.2070
    3.5019 	   32.5450 	    5.0000 	   32.0000 	   16.3790
    3.6240 	   32.6990 	    5.0000 	   32.0000 	   16.5330
    3.5325 	   32.8550 	    5.0000 	   32.0000 	   16.6890
    3.5782 	   33.0040 	    5.0000 	   32.0000 	   16.8380
    3.8224 	   33.1750 	    5.0000 	   32.0000 	   17.0090
    3.6393 	   33.3400 	    5.0000 	   32.0000 	   17.1740
    3.6698 	   33.4930 	    5.0000 	   32.0000 	   17.3271
    3.7156 	   33.6500 	    5.0000 	   32.0000 	   17.4841
    3.7156 	   33.8120 	    5.0000 	   32.0000 	   17.6461
    3.9139 	   33.9690 	    5.0000 	   32.0000 	   17.8031
    3.8529 	   34.1420 	    5.0000 	   32.0000 	   17.9761
    3.8376 	   34.3130 	    5.0000 	   32.0000 	   18.1471
    3.8529 	   34.4800 	    5.0000 	   32.0000 	   18.3141
    4.0055 	   34.6510 	    5.0000 	   32.0000 	   18.4851
    4.0208 	   34.8060 	    5.0000 	   32.0000 	   18.6401
    4.0055 	   34.9640 	    5.0000 	   32.0000 	   18.7981
    4.0360 	   35.1380 	    5.0000 	   32.0000 	   18.9721
    4.0970 	   35.3020 	    5.0000 	   32.0000 	   19.1362
    4.1276 	   35.4780 	    5.0000 	   32.0000 	   19.3122
    4.0970 	   35.6480 	    5.0000 	   32.0000 	   19.4822
    3.7766 	   35.8090 	    5.0000 	   32.0000 	   19.6432
    3.7003 	   35.9670 	    5.0000 	   32.0000 	   19.8012
    3.6240 	   36.1430 	    5.0000 	   32.0000 	   19.9772
    3.5019 	   36.3030 	    5.0000 	   32.0000 	   20.1372
    3.4409 	   36.4590 	    5.0000 	   32.0000 	   20.2932
    3.3951 	   36.6160 	    5.0000 	   32.0000 	   20.4502
    3.3188 	   36.7860 	    5.0000 	   32.0000 	   20.6202
    3.1815 	   36.9440 	    5.0000 	   32.0000 	   20.7782
    3.0289 	   37.1110 	    5.0000 	   32.0000 	   20.9453
    3.1968 	   37.2810 	    5.0000 	   32.0000 	   21.1153
    3.0137 	   37.4560 	    5.0000 	   32.0000 	   21.2903
    2.9221 	   37.6280 	    5.0000 	   32.0000 	   21.4623
    2.7695 	   37.7950 	    5.0000 	   32.0000 	   21.6293
    2.9068 	   37.9490 	    5.0000 	   32.0000 	   21.7833
    2.7390 	   38.1200 	    5.0000 	   32.0000 	   21.9543
    2.6627 	   38.2940 	    5.0000 	   32.0000 	   22.1283
    2.8305 	   38.4540 	    5.0000 	   32.0000 	   22.2873
    2.8611 	   38.6300 	    5.0000 	   32.0000 	   22.4633
    2.5254 	   38.7970 	    5.0000 	   32.0000 	   22.6304
    2.4643 	   38.9540 	    5.0000 	   32.0000 	   22.7874
    2.5101 	   39.1130 	    5.0000 	   32.0000 	   22.9464
    2.5254 	   39.2800 	    5.0000 	   32.0000 	   23.1134
    2.4033 	   39.4590 	    5.0000 	   32.0000 	   23.2924
    2.4186 	   39.6300 	    5.0000 	   32.0000 	   23.4634
    2.4796 	   39.7870 	    5.0000 	   32.0000 	   23.6204
    2.3117 	   39.9430 	    5.0000 	   32.0000 	   23.7764
    2.3117 	   40.1170 	    5.0000 	   32.0000 	   23.9504
    2.2965 	   40.2940 	    5.0000 	   32.0000 	   24.1274
    2.3880 	   40.4540 	    5.0000 	   32.0000 	   24.2874
    2.2965 	   40.6120 	    5.0000 	   32.0000 	   24.4455
    2.4186 	   40.7720 	    5.0000 	   32.0000 	   24.6055
    2.1439 	   40.9340 	    5.0000 	   32.0000 	   24.7675
    2.1592 	   41.1020 	    5.0000 	   32.0000 	   24.9345
    2.0523 	   41.2790 	    5.0000 	   32.0000 	   25.1125
    1.9608 	   41.4580 	    5.0000 	   32.0000 	   25.2915
    1.9913 	   41.6310 	    5.0000 	   32.0000 	   25.4645
    1.9150 	   41.7980 	    5.0000 	   32.0000 	   25.6315
    2.0981 	   41.9570 	    5.0000 	   32.0000 	   25.7905
    1.9913 	   42.1350 	    5.0000 	   32.0000 	   25.9685
    1.9303 	   42.3120 	    5.0000 	   32.0000 	   26.1456
    1.9455 	   42.4930 	    5.0000 	   32.0000 	   26.3266
    1.8387 	   42.6610 	    5.0000 	   32.0000 	   26.4946
    1.8540 	   42.8280 	    5.0000 	   32.0000 	   26.6616
    1.8235 	   42.9850 	    5.0000 	   32.0000 	   26.8186
    1.7319 	   43.1550 	    5.0000 	   32.0000 	   26.9886
    1.8692 	   43.3290 	    5.0000 	   32.0000 	   27.1626
    1.7624 	   43.5070 	    5.0000 	   32.0000 	   27.3406
    1.5183 	   43.6850 	    5.0000 	   32.0000 	   27.5186
    1.7166 	   43.8490 	    5.0000 	   32.0000 	   27.6826
    1.7319 	   44.0050 	    5.0000 	   32.0000 	   27.8387
    1.6403 	   44.1800 	    5.0000 	   32.0000 	   28.0137
    1.8235 	   44.3600 	    5.0000 	   32.0000 	   28.1937
    1.7014 	   44.5410 	    5.0000 	   32.0000 	   28.3747
    1.4725 	   44.7220 	    5.0000 	   32.0000 	   28.5557
    1.7319 	   44.8960 	    5.0000 	   32.0000 	   28.7297
    1.6861 	   45.0540 	    5.0000 	   32.0000 	   28.8877
    1.7777 	   45.2300 	    5.0000 	   32.0000 	   29.0637
    1.5946 	   45.4070 	    5.0000 	   32.0000 	   29.2407
    1.7929 	   45.5830 	    5.0000 	   32.0000 	   29.4167
    1.6251 	   45.7620 	    5.0000 	   32.0000 	   29.5958
    1.5335 	   45.9310 	    5.0000 	   32.0000 	   29.7648
    1.5488 	   46.0950 	    5.0000 	   32.0000 	   29.9288
    1.5946 	   46.2760 	    5.0000 	   32.0000 	   30.1098
    1.5183 	   46.4570 	    5.0000 	   32.0000 	   30.2908
    1.3504 	   46.6340 	    5.0000 	   32.0000 	   30.4678
    1.6098 	   46.8120 	    5.0000 	   32.0000 	   30.6458
    1.5335 	   46.9760 	    5.0000 	   32.0000 	   30.8098
    1.5183 	   47.1460 	    5.0000 	   32.0000 	   30.9798
    1.2131 	   47.3240 	    5.0000 	   32.0000 	   31.1578
    1.4572 	   47.4980 	    5.0000 	   32.0000 	   31.3319
    1.3504 	   47.6600 	    5.0000 	   32.0000 	   31.4939
    1.5183 	   47.8230 	    5.0000 	   32.0000 	   31.6569
    1.3809 	   47.9930 	    5.0000 	   32.0000 	   31.8269
    1.3504 	   48.1590 	    5.0000 	   32.0000 	   31.9929
    1.3962 	   48.3230 	    5.0000 	   32.0000 	   32.1569
    1.2741 	   48.4870 	    5.0000 	   32.0000 	   32.3209
    1.3962 	   48.6710 	    5.0000 	   32.0000 	   32.5049
    1.4420 	   48.8480 	    5.0000 	   32.0000 	   32.6819
    1.1521 	   49.0140 	    5.0000 	   32.0000 	   32.8479
    1.1063 	   49.1870 	    5.0000 	   32.0000 	   33.0210
    1.4115 	   49.3730 	    5.0000 	   32.0000 	   33.2070
    1.2894 	   49.5500 	    5.0000 	   32.0000 	   33.3840
    1.0758 	   49.7300 	    5.0000 	   32.0000 	   33.5640
    1.2741 	   49.9040 	    5.0000 	   32.0000 	   33.7380
    1.3504 	   50.0700 	    5.0000 	   32.0000 	   33.9040
    0.9689 	   50.2500 	    5.0000 	   32.0000 	   34.0840
    1.4115 	   50.4350 	    5.0000 	   32.0000 	   34.2690
    1.3962 	   50.6040 	    5.0000 	   32.0000 	   34.4380
    1.2436 	   50.7800 	    5.0000 	   32.0000 	   34.6140
    1.2436 	   50.9510 	    5.0000 	   32.0000 	   34.7850
    1.1826 	   51.1270 	    5.0000 	   32.0000 	   34.9611
    1.0910 	   51.3100 	    5.0000 	   32.0000 	   35.1441
    1.2589 	   51.4800 	    5.0000 	   32.0000 	   35.3141
    1.1673 	   51.6470 	    5.0000 	   32.0000 	   35.4811
    1.0605 	   51.8130 	    5.0000 	   32.0000 	   35.6471
    1.0758 	   51.9870 	    5.0000 	   32.0000 	   35.8211
    1.1215 	   52.1650 	    5.0000 	   32.0000 	   35.9991
    1.2436 	   52.3450 	    5.0000 	   32.0000 	   36.1791
    1.1826 	   52.5300 	    5.0000 	   32.0000 	   36.3641
    1.0300 	   52.7140 	    5.0000 	   32.0000 	   36.5481
    1.0452 	   52.8960 	    5.0000 	   32.0000 	   36.7302
    1.2741 	   53.0790 	    5.0000 	   32.0000 	   36.9132
    1.0758 	   53.2580 	    5.0000 	   32.0000 	   37.0922
    1.1673 	   53.4260 	    5.0000 	   32.0000 	   37.2602
    0.9537 	   53.5880 	    5.0000 	   32.0000 	   37.4222
    1.1368 	   53.7620 	    5.0000 	   32.0000 	   37.5962
    1.0758 	   53.9370 	    5.0000 	   32.0000 	   37.7712
    1.0452 	   54.1060 	    5.0000 	   32.0000 	   37.9402
    0.9537 	   54.2710 	    5.0000 	   32.0000 	   38.1052
    0.8927 	   54.4490 	    5.0000 	   32.0000 	   38.2832
    1.0605 	   54.6320 	    5.0000 	   32.0000 	   38.4663
    1.1521 	   54.8050 	    5.0000 	   32.0000 	   38.6393
    1.0147 	   54.9940 	    5.0000 	   32.0000 	   38.8283
    0.8469 	   55.1720 	    5.0000 	   32.0000 	   39.0063
    0.9995 	   55.3630 	    5.0000 	   32.0000 	   39.1973
    0.8927 	   55.5500 	    5.0000 	   32.0000 	   39.3843
    0.9232 	   55.7350 	    5.0000 	   32.0000 	   39.5693
    1.0452 	   55.9150 	    5.0000 	   32.0000 	   39.7493
    0.9842 	   56.0870 	    5.0000 	   32.0000 	   39.9203
    1.0300 	   56.2570 	    5.0000 	   32.0000 	   40.0904
    1.0147 	   56.4410 	    5.0000 	   32.0000 	   40.2744
    0.9079 	   56.6280 	    5.0000 	   32.0000 	   40.4614
    1.0452 	   56.8170 	    5.0000 	   32.0000 	   40.6504
    0.9842 	   56.9900 	    5.0000 	   32.0000 	   40.8234
    0.8927 	   57.1620 	    5.0000 	   32.0000 	   40.9954
    0.8774 	   57.3370 	    5.0000 	   32.0000 	   41.1704
    0.8927 	   57.5250 	    5.0000 	   32.0000 	   41.3584
    0.9079 	   57.7110 	    5.0000 	   32.0000 	   41.5444
    0.7401 	   57.8910 	    5.0000 	   32.0000 	   41.7244
    0.9995 	   58.0610 	    5.0000 	   32.0000 	   41.8945
    0.8469 	   58.2280 	    5.0000 	   32.0000 	   42.0615
    0.8164 	   58.4040 	    5.0000 	   32.0000 	   42.2375
    0.9232 	   58.5850 	    5.0000 	   32.0000 	   42.4185
    0.8316 	   58.7710 	    5.0000 	   32.0000 	   42.6045
    0.9995 	   58.9480 	    5.0000 	   32.0000 	   42.7815
    1.0605 	   59.1130 	    5.0000 	   32.0000 	   42.9465
    1.0300 	   59.2870 	    5.0000 	   32.0000 	   43.1205
    0.9384 	   59.4620 	    5.0000 	   32.0000 	   43.2955
    0.9079 	   59.6330 	    5.0000 	   32.0000 	   43.4665
    0.8316 	   59.8190 	    5.0000 	   32.0000 	   43.6526
    0.8469 	   59.9950 	    5.0000 	   32.0000 	   43.8286
    0.8011 	   60.1640 	    5.0000 	   32.0000 	   43.9976
    0.8774 	   60.3320 	    5.0000 	   32.0000 	   44.1656
    0.8621 	   60.5040 	    5.0000 	   32.0000 	   44.3376
    0.9842 	   60.6730 	    5.0000 	   32.0000 	   44.5066
    0.8927 	   60.8420 	    5.0000 	   32.0000 	   44.6756
    0.8774 	   61.0190 	    5.0000 	   32.0000 	   44.8526
    0.8164 	   61.1900 	    5.0000 	   32.0000 	   45.0236
    0.8011 	   61.3760 	    5.0000 	   32.0000 	   45.2096
    0.6790 	   61.5650 	    5.0000 	   32.0000 	   45.3987
    0.6027 	   61.7420 	    5.0000 	   32.0000 	   45.5757
    0.5722 	   61.9230 	    5.0000 	   32.0000 	   45.7567
    0.8011 	   62.0960 	    5.0000 	   32.0000 	   45.9297
    0.9384 	   62.2680 	    5.0000 	   32.0000 	   46.1017
    0.8011 	   62.4390 	    5.0000 	   32.0000 	   46.2727
    0.7706 	   62.6150 	    5.0000 	   32.0000 	   46.4487
    0.8011 	   62.8010 	    5.0000 	   32.0000 	   46.6347
    0.8011 	   62.9800 	    5.0000 	   32.0000 	   46.8137
    0.7095 	   63.1590 	    5.0000 	   32.0000 	   46.9927
    0.7401 	   63.3530 	    5.0000 	   32.0000 	   47.1868
    0.9232 	   63.5340 	    5.0000 	   32.0000 	   47.3678
    0.8316 	   63.7060 	    5.0000 	   32.0000 	   47.5398
    0.8011 	   63.8780 	    5.0000 	   32.0000 	   47.7118
    0.9232 	   64.0580 	    5.0000 	   32.0000 	   47.8918
    0.7401 	   64.2300 	    5.0000 	   32.0000 	   48.0638
    0.7248 	   64.4000 	    5.0000 	   32.0000 	   48.2338
    0.7706 	   64.5870 	    5.0000 	   32.0000 	   48.4208
    0.7706 	   64.7810 	    5.0000 	   32.0000 	   48.6148
    0.6790 	   64.9680 	    5.0000 	   32.0000 	   48.8018
    0.6943 	   65.1490 	    5.0000 	   32.0000 	   48.9829
    0.7706 	   65.3340 	    5.0000 	   32.0000 	   49.1679
    0.7095 	   65.5270 	    5.0000 	   32.0000 	   49.3609
    0.7095 	   65.7200 	    5.0000 	   32.0000 	   49.5539
    0.7401 	   65.9130 	    5.0000 	   32.0000 	   49.7469
    0.7401 	   66.0950 	    5.0000 	   32.0000 	   49.9289
    0.6638 	   66.2760 	    5.0000 	   32.0000 	   50.1099
    0.7553 	   66.4680 	    5.0000 	   32.0000 	   50.3019
    0.7706 	   66.6640 	    5.0000 	   32.0000 	   50.4979
    0.6638 	   66.8540 	    5.0000 	   32.0000 	   50.6880
    0.6638 	   67.0330 	    5.0000 	   32.0000 	   50.8670
    0.5875 	   67.2080 	    5.0000 	   32.0000 	   51.0420
    0.7095 	   67.3850 	    5.0000 	   32.0000 	   51.2190
    0.6485 	   67.5790 	    5.0000 	   32.0000 	   51.4130
    0.5570 	   67.7740 	    5.0000 	   32.0000 	   51.6080
    0.7858 	   67.9620 	    5.0000 	   32.0000 	   51.7960
    0.6790 	   68.1410 	    5.0000 	   32.0000 	   51.9750
    0.6027 	   68.3310 	    5.0000 	   32.0000 	   52.1650
    0.7095 	   68.5270 	    5.0000 	   32.0000 	   52.3611
    0.7095 	   68.7240 	    5.0000 	   32.0000 	   52.5571
    0.6332 	   68.9150 	    5.0000 	   32.0000 	   52.7491
    0.7553 	   69.0910 	    5.0000 	   32.0000 	   52.9251
    0.3586 	   69.2680 	    5.0000 	   32.0000 	   53.1021
    0.5875 	   69.4520 	    5.0000 	   32.0000 	   53.2861
    0.6790 	   69.6330 	    5.0000 	   32.0000 	   53.4671
    0.6332 	   69.8100 	    5.0000 	   32.0000 	   53.6441
    0.6180 	   69.9900 	    5.0000 	   32.0000 	   53.8241
    0.6485 	   70.1690 	    5.0000 	   32.0000 	   54.0031
    0.8164 	   70.3500 	    5.0000 	   32.0000 	   54.1842
    0.6638 	   70.5290 	    5.0000 	   32.0000 	   54.3632
    0.6790 	   70.7190 	    5.0000 	   32.0000 	   54.5532
    0.6638 	   70.9050 	    5.0000 	   32.0000 	   54.7392
    0.4044 	   71.0880 	    5.0000 	   32.0000 	   54.9222
    0.5875 	   71.2760 	    5.0000 	   32.0000 	   55.1102
    0.5875 	   71.4760 	    5.0000 	   32.0000 	   55.3102
    0.5417 	   71.6650 	    5.0000 	   32.0000 	   55.4992
    0.6332 	   71.8610 	    5.0000 	   32.0000 	   55.6952
    0.6638 	   72.0480 	    5.0000 	   32.0000 	   55.8823
    0.7248 	   72.2250 	    5.0000 	   32.0000 	   56.0593
    0.6027 	   72.4200 	    5.0000 	   32.0000 	   56.2543
    0.6638 	   72.6180 	    5.0000 	   32.0000 	   56.4523
    0.7553 	   72.8190 	    5.0000 	   32.0000 	   56.6533
    0.6943 	   73.0070 	    5.0000 	   32.0000 	   56.8413
    0.6027 	   73.1860 	    5.0000 	   32.0000 	   57.0203
    0.7553 	   73.3770 	    5.0000 	   32.0000 	   57.2113
    0.7248 	   73.5790 	    5.0000 	   32.0000 	   57.4123
    0.8927 	   73.7750 	    5.0000 	   32.0000 	   57.6084
    0.6485 	   73.9700 	    5.0000 	   32.0000 	   57.8034
    0.6790 	   74.1560 	    5.0000 	   32.0000 	   57.9894
    0.8774 	   74.3440 	    5.0000 	   32.0000 	   58.1774
    0.7553 	   74.5440 	    5.0000 	   32.0000 	   58.3774
    0.6943 	   74.7420 	    5.0000 	   32.0000 	   58.5754
    0.7401 	   74.9350 	    5.0000 	   32.0000 	   58.7684
    0.9232 	   75.1200 	    5.0000 	   32.0000 	   58.9534
    0.7858 	   75.3020 	    5.0000 	   32.0000 	   59.1354
    0.8469 	   75.5020 	    5.0000 	   32.0000 	   59.3355
    0.7858 	   75.6960 	    5.0000 	   32.0000 	   59.5295
    0.8316 	   75.8770 	    5.0000 	   32.0000 	   59.7105
    0.5875 	   76.0620 	    5.0000 	   32.0000 	   59.8955
    0.9232 	   76.2440 	    5.0000 	   33.0000 	    0.0775
    0.8621 	   76.4310 	    5.0000 	   33.0000 	    0.2645
    0.9384 	   76.6220 	    5.0000 	   33.0000 	    0.4555
    0.9384 	   76.8190 	    5.0000 	   33.0000 	    0.6525
    1.0147 	   77.0080 	    5.0000 	   33.0000 	    0.8415
    0.9995 	   77.1930 	    5.0000 	   33.0000 	    1.0266
    0.8774 	   77.3860 	    5.0000 	   33.0000 	    1.2196
    0.9232 	   77.5850 	    5.0000 	   33.0000 	    1.4186
    0.8774 	   77.7650 	    5.0000 	   33.0000 	    1.5986
    0.7858 	   77.9490 	    5.0000 	   33.0000 	    1.7826
    0.9079 	   78.1340 	    5.0000 	   33.0000 	    1.9676
    0.9079 	   78.3190 	    5.0000 	   33.0000 	    2.1526
    0.9232 	   78.5150 	    5.0000 	   33.0000 	    2.3486
    0.8469 	   78.7170 	    5.0000 	   33.0000 	    2.5506
    0.9995 	   78.9180 	    5.0000 	   33.0000 	    2.7516
    0.9842 	   79.1040 	    5.0000 	   33.0000 	    2.9377
    0.9537 	   79.2950 	    5.0000 	   33.0000 	    3.1287
    0.9384 	   79.4870 	    5.0000 	   33.0000 	    3.3207
    0.9689 	   79.6780 	    5.0000 	   33.0000 	    3.5117
    0.9079 	   79.8830 	    5.0000 	   33.0000 	    3.7167
    0.9995 	   80.0810 	    5.0000 	   33.0000 	    3.9147
    1.0147 	   80.2760 	    5.0000 	   33.0000 	    4.1097
    0.9689 	   80.4790 	    5.0000 	   33.0000 	    4.3127
    0.9842 	   80.6730 	    5.0000 	   33.0000 	    4.5067
    0.8774 	   80.8590 	    5.0000 	   33.0000 	    4.6928
    1.0147 	   81.0510 	    5.0000 	   33.0000 	    4.8848
    0.9689 	   81.2350 	    5.0000 	   33.0000 	    5.0688
    1.0758 	   81.4350 	    5.0000 	   33.0000 	    5.2688
    1.0300 	   81.6370 	    5.0000 	   33.0000 	    5.4708
    1.1978 	   81.8390 	    5.0000 	   33.0000 	    5.6728
    0.9537 	   82.0320 	    5.0000 	   33.0000 	    5.8658
    0.9079 	   82.2220 	    5.0000 	   33.0000 	    6.0558
    1.1521 	   82.4200 	    5.0000 	   33.0000 	    6.2538
    0.9537 	   82.6060 	    5.0000 	   33.0000 	    6.4399
    1.0452 	   82.7910 	    5.0000 	   33.0000 	    6.6249
    1.0910 	   82.9790 	    5.0000 	   33.0000 	    6.8129
    1.1215 	   83.1710 	    5.0000 	   33.0000 	    7.0049
    1.1368 	   83.3640 	    5.0000 	   33.0000 	    7.1979
    1.1215 	   83.5570 	    5.0000 	   33.0000 	    7.3909
    1.1521 	   83.7570 	    5.0000 	   33.0000 	    7.5909
    1.1521 	   83.9570 	    5.0000 	   33.0000 	    7.7909
    1.3352 	   84.1580 	    5.0000 	   33.0000 	    7.9919
    1.2436 	   84.3520 	    5.0000 	   33.0000 	    8.1860
    1.1368 	   84.5550 	    5.0000 	   33.0000 	    8.3890
    1.3809 	   84.7590 	    5.0000 	   33.0000 	    8.5930
    1.2589 	   84.9590 	    5.0000 	   33.0000 	    8.7930
    1.1521 	   85.1530 	    5.0000 	   33.0000 	    8.9860
    1.1826 	   85.3330 	    5.0000 	   33.0000 	    9.1670
    1.3962 	   85.5280 	    5.0000 	   33.0000 	    9.3620
    1.3046 	   85.7230 	    5.0000 	   33.0000 	    9.5570
    1.0147 	   85.9150 	    5.0000 	   33.0000 	    9.7490
    1.1368 	   86.1140 	    5.0000 	   33.0000 	    9.9481
    1.3046 	   86.3020 	    5.0000 	   33.0000 	   10.1361
    1.3046 	   86.4990 	    5.0000 	   33.0000 	   10.3331
    1.3199 	   86.6950 	    5.0000 	   33.0000 	   10.5291
    1.3504 	   86.8860 	    5.0000 	   33.0000 	   10.7201
    1.3504 	   87.0800 	    5.0000 	   33.0000 	   10.9141
    1.3657 	   87.2690 	    5.0000 	   33.0000 	   11.1031
    1.4725 	   87.4670 	    5.0000 	   33.0000 	   11.3011
    1.4725 	   87.6640 	    5.0000 	   33.0000 	   11.4981
    1.4725 	   87.8520 	    5.0000 	   33.0000 	   11.6862
    1.4725 	   88.0500 	    5.0000 	   33.0000 	   11.8842
    1.5183 	   88.2410 	    5.0000 	   33.0000 	   12.0752
    1.4572 	   88.4340 	    5.0000 	   33.0000 	   12.2682
    1.5183 	   88.6390 	    5.0000 	   33.0000 	   12.4732
    1.5335 	   88.8460 	    5.0000 	   33.0000 	   12.6802
    1.8082 	   89.0390 	    5.0000 	   33.0000 	   12.8732
    1.4725 	   89.2260 	    5.0000 	   33.0000 	   13.0602
    1.6861 	   89.4110 	    5.0000 	   33.0000 	   13.2452
    1.6403 	   89.6000 	    5.0000 	   33.0000 	   13.4343
    1.5793 	   89.7950 	    5.0000 	   33.0000 	   13.6293
    1.6403 	   89.9850 	    5.0000 	   33.0000 	   13.8193
    1.5640 	   90.1830 	    5.0000 	   33.0000 	   14.0173
    1.5183 	   90.3700 	    5.0000 	   33.0000 	   14.2043
    1.7624 	   90.5770 	    5.0000 	   33.0000 	   14.4113
    1.5793 	   90.7810 	    5.0000 	   33.0000 	   14.6153
    1.5793 	   90.9810 	    5.0000 	   33.0000 	   14.8143
    1.7624 	   91.1750 	    5.0000 	   33.0000 	   15.0084
    1.9608 	   91.3650 	    5.0000 	   33.0000 	   15.1984
    1.8845 	   91.5710 	    5.0000 	   33.0000 	   15.4044
    1.6403 	   91.7710 	    5.0000 	   33.0000 	   15.6044
    1.6709 	   91.9700 	    5.0000 	   33.0000 	   15.8034
    1.9150 	   92.1750 	    5.0000 	   33.0000 	   16.0084
    1.6861 	   92.3580 	    5.0000 	   33.0000 	   16.1914
    1.9455 	   92.5610 	    5.0000 	   33.0000 	   16.3944
    1.8540 	   92.7680 	    5.0000 	   33.0000 	   16.6014
    1.7929 	   92.9740 	    5.0000 	   33.0000 	   16.8075
    1.8692 	   93.1680 	    5.0000 	   33.0000 	   17.0015
    1.8692 	   93.3660 	    5.0000 	   33.0000 	   17.1995
    1.5183 	   93.5610 	    5.0000 	   33.0000 	   17.3945
    1.8692 	   93.7600 	    5.0000 	   33.0000 	   17.5935
    1.8997 	   93.9570 	    5.0000 	   33.0000 	   17.7905
    1.8845 	   94.1580 	    5.0000 	   33.0000 	   17.9915
    2.0523 	   94.3510 	    5.0000 	   33.0000 	   18.1845
    2.0829 	   94.5550 	    5.0000 	   33.0000 	   18.3885
    2.0523 	   94.7460 	    5.0000 	   33.0000 	   18.5796
    2.1439 	   94.9560 	    5.0000 	   33.0000 	   18.7896
    2.1439 	   95.1570 	    5.0000 	   33.0000 	   18.9906
    1.9913 	   95.3490 	    5.0000 	   33.0000 	   19.1826
    1.9608 	   95.5520 	    5.0000 	   33.0000 	   19.3856
    2.2660 	   95.7630 	    5.0000 	   33.0000 	   19.5966
    2.1286 	   95.9720 	    5.0000 	   33.0000 	   19.8056
    2.3117 	   96.1780 	    5.0000 	   33.0000 	   20.0116
    2.1439 	   96.3710 	    5.0000 	   33.0000 	   20.2046
    2.1897 	   96.5770 	    5.0000 	   33.0000 	   20.4107
    2.3270 	   96.7720 	    5.0000 	   33.0000 	   20.6057
    2.2202 	   96.9800 	    5.0000 	   33.0000 	   20.8137
    2.2660 	   97.1810 	    5.0000 	   33.0000 	   21.0147
    2.3270 	   97.3790 	    5.0000 	   33.0000 	   21.2127
    2.1897 	   97.5880 	    5.0000 	   33.0000 	   21.4217
    2.2202 	   97.8060 	    5.0000 	   33.0000 	   21.6397
    2.2507 	   98.0200 	    5.0000 	   33.0000 	   21.8537
    2.3880 	   98.2270 	    5.0000 	   33.0000 	   22.0608
    2.4796 	   98.4160 	    5.0000 	   33.0000 	   22.2498
    2.5101 	   98.6290 	    5.0000 	   33.0000 	   22.4628
    2.5101 	   98.8310 	    5.0000 	   33.0000 	   22.6648
    2.5864 	   99.0360 	    5.0000 	   33.0000 	   22.8698
    2.5711 	   99.2380 	    5.0000 	   33.0000 	   23.0718
    2.6017 	   99.4480 	    5.0000 	   33.0000 	   23.2818
    2.7085 	   99.6560 	    5.0000 	   33.0000 	   23.4898
    2.7390 	   99.8640 	    5.0000 	   33.0000 	   23.6978
    2.6169 	  100.0780 	    5.0000 	   33.0000 	   23.9119
    2.7543 	  100.2820 	    5.0000 	   33.0000 	   24.1159
    2.9221 	  100.4910 	    5.0000 	   33.0000 	   24.3249
    2.7848 	  100.6900 	    5.0000 	   33.0000 	   24.5239
    2.8305 	  100.9030 	    5.0000 	   33.0000 	   24.7369
    2.9526 	  101.1100 	    5.0000 	   33.0000 	   24.9439
    3.0594 	  101.3060 	    5.0000 	   33.0000 	   25.1399
    2.8305 	  101.5190 	    5.0000 	   33.0000 	   25.3529
    2.9374 	  101.7250 	    5.0000 	   33.0000 	   25.5590
    2.9221 	  101.9290 	    5.0000 	   33.0000 	   25.7630
    3.0289 	  102.1360 	    5.0000 	   33.0000 	   25.9700
    3.0137 	  102.3290 	    5.0000 	   33.0000 	   26.1630
    2.9831 	  102.5400 	    5.0000 	   33.0000 	   26.3740
    3.2273 	  102.7450 	    5.0000 	   33.0000 	   26.5790
    3.0442 	  102.9410 	    5.0000 	   33.0000 	   26.7750
    3.1205 	  103.1410 	    5.0000 	   33.0000 	   26.9750
    3.1510 	  103.3360 	    5.0000 	   33.0000 	   27.1700
    3.2578 	  103.5530 	    5.0000 	   33.0000 	   27.3871
    3.1815 	  103.7720 	    5.0000 	   33.0000 	   27.6061
    3.3646 	  103.9830 	    5.0000 	   33.0000 	   27.8171
    3.2120 	  104.1910 	    5.0000 	   33.0000 	   28.0251
    3.3951 	  104.3990 	    5.0000 	   33.0000 	   28.2331
    3.4562 	  104.6160 	    5.0000 	   33.0000 	   28.4501
    3.4409 	  104.8170 	    5.0000 	   33.0000 	   28.6511
    3.5477 	  105.0160 	    5.0000 	   33.0000 	   28.8501
    3.6088 	  105.2260 	    5.0000 	   33.0000 	   29.0602
    3.5630 	  105.4240 	    5.0000 	   33.0000 	   29.2582
    3.5019 	  105.6350 	    5.0000 	   33.0000 	   29.4692
    3.7003 	  105.8510 	    5.0000 	   33.0000 	   29.6852
    3.6851 	  106.0690 	    5.0000 	   33.0000 	   29.9032
    3.7613 	  106.2690 	    5.0000 	   33.0000 	   30.1032
    3.8224 	  106.4800 	    5.0000 	   33.0000 	   30.3142
    3.8834 	  106.6850 	    5.0000 	   33.0000 	   30.5192
    3.8529 	  106.8860 	    5.0000 	   33.0000 	   30.7202
    3.9139 	  107.0870 	    5.0000 	   33.0000 	   30.9213
    3.9902 	  107.2890 	    5.0000 	   33.0000 	   31.1233
    3.7156 	  107.5010 	    5.0000 	   33.0000 	   31.3353
    4.0513 	  107.7150 	    5.0000 	   33.0000 	   31.5493
    4.0055 	  107.9310 	    5.0000 	   33.0000 	   31.7653
    3.6698 	  108.1430 	    5.0000 	   33.0000 	   31.9773
    3.7003 	  108.3500 	    5.0000 	   33.0000 	   32.1843
    3.3951 	  108.5630 	    5.0000 	   33.0000 	   32.3963
    3.2578 	  108.7750 	    5.0000 	   33.0000 	   32.6084
    3.3036 	  108.9950 	    5.0000 	   33.0000 	   32.8284
    3.0900 	  109.2000 	    5.0000 	   33.0000 	   33.0334
    2.9831 	  109.4040 	    5.0000 	   33.0000 	   33.2374
    2.9374 	  109.6200 	    5.0000 	   33.0000 	   33.4534
    2.7848 	  109.8350 	    5.0000 	   33.0000 	   33.6684
    2.8916 	  110.0560 	    5.0000 	   33.0000 	   33.8894
    2.4643 	  110.2690 	    5.0000 	   33.0000 	   34.1024
    2.7237 	  110.4860 	    5.0000 	   33.0000 	   34.3195
    2.5711 	  110.7020 	    5.0000 	   33.0000 	   34.5355
    2.5711 	  110.9220 	    5.0000 	   33.0000 	   34.7555
    2.4643 	  111.1390 	    5.0000 	   33.0000 	   34.9725
    2.4796 	  111.3390 	    5.0000 	   33.0000 	   35.1725
    2.1592 	  111.5450 	    5.0000 	   33.0000 	   35.3785
    2.4491 	  111.7550 	    5.0000 	   33.0000 	   35.5885
    2.2965 	  111.9590 	    5.0000 	   33.0000 	   35.7925
    2.3270 	  112.1650 	    5.0000 	   33.0000 	   35.9986
    2.1286 	  112.3700 	    5.0000 	   33.0000 	   36.2036
    2.2202 	  112.5840 	    5.0000 	   33.0000 	   36.4176
    1.9913 	  112.8010 	    5.0000 	   33.0000 	   36.6346
    1.7777 	  113.0080 	    5.0000 	   33.0000 	   36.8416
    2.1286 	  113.2160 	    5.0000 	   33.0000 	   37.0496
    2.1592 	  113.4130 	    5.0000 	   33.0000 	   37.2466
    1.9913 	  113.6240 	    5.0000 	   33.0000 	   37.4576
    1.9760 	  113.8350 	    5.0000 	   33.0000 	   37.6686
    1.8997 	  114.0510 	    5.0000 	   33.0000 	   37.8847
    1.9608 	  114.2580 	    5.0000 	   33.0000 	   38.0917
    1.9303 	  114.4620 	    5.0000 	   33.0000 	   38.2957
    1.6251 	  114.6810 	    5.0000 	   33.0000 	   38.5147
    1.8540 	  114.8990 	    5.0000 	   33.0000 	   38.7327
    1.7929 	  115.1140 	    5.0000 	   33.0000 	   38.9477
    1.8845 	  115.3180 	    5.0000 	   33.0000 	   39.1517
    1.6403 	  115.5370 	    5.0000 	   33.0000 	   39.3707
    1.7166 	  115.7680 	    5.0000 	   33.0000 	   39.6018
    1.7472 	  115.9890 	    5.0000 	   33.0000 	   39.8228
    1.7777 	  116.2020 	    5.0000 	   33.0000 	   40.0358
    1.6861 	  116.4030 	    5.0000 	   33.0000 	   40.2368
    1.7929 	  116.6220 	    5.0000 	   33.0000 	   40.4558
    1.6556 	  116.8350 	    5.0000 	   33.0000 	   40.6688
    1.6709 	  117.0470 	    5.0000 	   33.0000 	   40.8808
    1.5946 	  117.2590 	    5.0000 	   33.0000 	   41.0928
    1.5030 	  117.4670 	    5.0000 	   33.0000 	   41.3009
    1.5183 	  117.6920 	    5.0000 	   33.0000 	   41.5259
    1.4725 	  117.9130 	    5.0000 	   33.0000 	   41.7469
    1.4725 	  118.1320 	    5.0000 	   33.0000 	   41.9659
    1.5183 	  118.3400 	    5.0000 	   33.0000 	   42.1739
    1.3809 	  118.5460 	    5.0000 	   33.0000 	   42.3799
    1.5946 	  118.7550 	    5.0000 	   33.0000 	   42.5889
    1.5183 	  118.9650 	    5.0000 	   33.0000 	   42.7989
    1.4725 	  119.1790 	    5.0000 	   33.0000 	   43.0130
    1.4267 	  119.3820 	    5.0000 	   33.0000 	   43.2160
    1.4267 	  119.6090 	    5.0000 	   33.0000 	   43.4430
    1.1368 	  119.8330 	    5.0000 	   33.0000 	   43.6670
    1.2741 	  120.0600 	    5.0000 	   33.0000 	   43.8940
    1.4115 	  120.2830 	    5.0000 	   33.0000 	   44.1170
    1.3657 	  120.4850 	    5.0000 	   33.0000 	   44.3190
    1.2436 	  120.7070 	    5.0000 	   33.0000 	   44.5410
    1.3657 	  120.9220 	    5.0000 	   33.0000 	   44.7561
    1.2894 	  121.1360 	    5.0000 	   33.0000 	   44.9701
    1.2436 	  121.3430 	    5.0000 	   33.0000 	   45.1771
    1.3504 	  121.5620 	    5.0000 	   33.0000 	   45.3961
    1.2131 	  121.7840 	    5.0000 	   33.0000 	   45.6181
    1.2589 	  121.9990 	    5.0000 	   33.0000 	   45.8331
    1.2589 	  122.2180 	    5.0000 	   33.0000 	   46.0521
    1.2894 	  122.4300 	    5.0000 	   33.0000 	   46.2641
    1.1826 	  122.6440 	    5.0000 	   33.0000 	   46.4781
    1.2894 	  122.8680 	    5.0000 	   33.0000 	   46.7022
    1.2589 	  123.0770 	    5.0000 	   33.0000 	   46.9112
    1.2284 	  123.2850 	    5.0000 	   33.0000 	   47.1192
    1.1673 	  123.4910 	    5.0000 	   33.0000 	   47.3252
    1.1521 	  123.7000 	    5.0000 	   33.0000 	   47.5342
    1.0758 	  123.9260 	    5.0000 	   33.0000 	   47.7602
    1.3352 	  124.1480 	    5.0000 	   33.0000 	   47.9822
    1.0910 	  124.3580 	    5.0000 	   33.0000 	   48.1922
    1.1063 	  124.5710 	    5.0000 	   33.0000 	   48.4053
    1.0758 	  124.7940 	    5.0000 	   33.0000 	   48.6283
    1.0147 	  125.0170 	    5.0000 	   33.0000 	   48.8513
    0.9537 	  125.2340 	    5.0000 	   33.0000 	   49.0683
    1.1215 	  125.4380 	    5.0000 	   33.0000 	   49.2723
    1.0300 	  125.6450 	    5.0000 	   33.0000 	   49.4793
    1.0452 	  125.8520 	    5.0000 	   33.0000 	   49.6863
    1.1063 	  126.0630 	    5.0000 	   33.0000 	   49.8963
    1.0300 	  126.2750 	    5.0000 	   33.0000 	   50.1084
    0.9842 	  126.4900 	    5.0000 	   33.0000 	   50.3234
    1.0147 	  126.7240 	    5.0000 	   33.0000 	   50.5574
    1.1521 	  126.9540 	    5.0000 	   33.0000 	   50.7874
    1.0452 	  127.1750 	    5.0000 	   33.0000 	   51.0084
    0.9689 	  127.3850 	    5.0000 	   33.0000 	   51.2184
    0.8774 	  127.6030 	    5.0000 	   33.0000 	   51.4364
    0.9689 	  127.8310 	    5.0000 	   33.0000 	   51.6644
    1.0147 	  128.0650 	    5.0000 	   33.0000 	   51.8985
    0.9384 	  128.2860 	    5.0000 	   33.0000 	   52.1195
    1.0452 	  128.4980 	    5.0000 	   33.0000 	   52.3315
    0.6638 	  128.7100 	    5.0000 	   33.0000 	   52.5435
    0.6332 	  128.9280 	    5.0000 	   33.0000 	   52.7615
    1.0300 	  129.1580 	    5.0000 	   33.0000 	   52.9915
    0.9384 	  129.3830 	    5.0000 	   33.0000 	   53.2165
    0.9537 	  129.5920 	    5.0000 	   33.0000 	   53.4255
    0.9384 	  129.8210 	    5.0000 	   33.0000 	   53.6546
    0.9537 	  130.0510 	    5.0000 	   33.0000 	   53.8846
    0.9232 	  130.2760 	    5.0000 	   33.0000 	   54.1096
    0.8469 	  130.4840 	    5.0000 	   33.0000 	   54.3176
    1.1063 	  130.6930 	    5.0000 	   33.0000 	   54.5266
    0.8621 	  130.9060 	    5.0000 	   33.0000 	   54.7396
    0.7401 	  131.1220 	    5.0000 	   33.0000 	   54.9556
    0.9232 	  131.3450 	    5.0000 	   33.0000 	   55.1786
    0.9537 	  131.5620 	    5.0000 	   33.0000 	   55.3957
    1.0300 	  131.7780 	    5.0000 	   33.0000 	   55.6117
    0.8316 	  132.0130 	    5.0000 	   33.0000 	   55.8467
    0.7401 	  132.2400 	    5.0000 	   33.0000 	   56.0737
    0.9537 	  132.4500 	    5.0000 	   33.0000 	   56.2837
    0.8774 	  132.6640 	    5.0000 	   33.0000 	   56.4977
    0.9384 	  132.8810 	    5.0000 	   33.0000 	   56.7147
    0.8011 	  133.0960 	    5.0000 	   33.0000 	   56.9297
    0.7401 	  133.3120 	    5.0000 	   33.0000 	   57.1458
    0.7401 	  133.5200 	    5.0000 	   33.0000 	   57.3538
    0.7858 	  133.7310 	    5.0000 	   33.0000 	   57.5648
    0.9842 	  133.9460 	    5.0000 	   33.0000 	   57.7798
    0.6943 	  134.1720 	    5.0000 	   33.0000 	   58.0058
    0.8164 	  134.3940 	    5.0000 	   33.0000 	   58.2278
    0.7095 	  134.6080 	    5.0000 	   33.0000 	   58.4418
    0.7553 	  134.8190 	    5.0000 	   33.0000 	   58.6528
    0.9079 	  135.0310 	    5.0000 	   33.0000 	   58.8649
    0.7706 	  135.2560 	    5.0000 	   33.0000 	   59.0899
    0.9842 	  135.4740 	    5.0000 	   33.0000 	   59.3079
    0.7858 	  135.6970 	    5.0000 	   33.0000 	   59.5309
    0.7401 	  135.9100 	    5.0000 	   33.0000 	   59.7439
    0.4959 	  136.1280 	    5.0000 	   33.0000 	   59.9619
    0.6638 	  136.3480 	    5.0000 	   34.0000 	    0.1819
    0.6943 	  136.5640 	    5.0000 	   34.0000 	    0.3979
    0.7095 	  136.7790 	    5.0000 	   34.0000 	    0.6130
    0.7095 	  137.0060 	    5.0000 	   34.0000 	    0.8400
    0.8621 	  137.2350 	    5.0000 	   34.0000 	    1.0690
    0.8774 	  137.4540 	    5.0000 	   34.0000 	    1.2880
    0.6332 	  137.6890 	    5.0000 	   34.0000 	    1.5230
    0.7553 	  137.9100 	    5.0000 	   34.0000 	    1.7440
    0.8011 	  138.1410 	    5.0000 	   34.0000 	    1.9750
    0.7095 	  138.3700 	    5.0000 	   34.0000 	    2.2040
    0.7553 	  138.5820 	    5.0000 	   34.0000 	    2.4161
    0.7095 	  138.8020 	    5.0000 	   34.0000 	    2.6361
    0.6790 	  139.0250 	    5.0000 	   34.0000 	    2.8591
    0.6790 	  139.2560 	    5.0000 	   34.0000 	    3.0901
    0.6943 	  139.4750 	    5.0000 	   34.0000 	    3.3091
    0.7858 	  139.7040 	    5.0000 	   34.0000 	    3.5381
    0.9232 	  139.9390 	    5.0000 	   34.0000 	    3.7731
    0.7248 	  140.1860 	    5.0000 	   34.0000 	    4.0202
    0.8164 	  140.4150 	    5.0000 	   34.0000 	    4.2492
    0.6790 	  140.6370 	    5.0000 	   34.0000 	    4.4712
    0.6638 	  140.8530 	    5.0000 	   34.0000 	    4.6872
    0.5570 	  141.0850 	    5.0000 	   34.0000 	    4.9192
    0.5417 	  141.3110 	    5.0000 	   34.0000 	    5.1452
    0.3891 	  141.5260 	    5.0000 	   34.0000 	    5.3602
    0.5875 	  141.7430 	    5.0000 	   34.0000 	    5.5772
    0.6638 	  141.9590 	    5.0000 	   34.0000 	    5.7933
    0.6638 	  142.1740 	    5.0000 	   34.0000 	    6.0083
    0.7095 	  142.3980 	    5.0000 	   34.0000 	    6.2323
    0.4959 	  142.6120 	    5.0000 	   34.0000 	    6.4463
    0.7248 	  142.8390 	    5.0000 	   34.0000 	    6.6733
    0.4196 	  143.0740 	    5.0000 	   34.0000 	    6.9083
    0.5570 	  143.2980 	    5.0000 	   34.0000 	    7.1323
    0.5722 	  143.5170 	    5.0000 	   34.0000 	    7.3503
    0.6943 	  143.7360 	    5.0000 	   34.0000 	    7.5694
    0.6638 	  143.9620 	    5.0000 	   34.0000 	    7.7954
    0.4807 	  144.0940 	    5.0000 	   34.0000 	    7.9274