File: instron/deadline/hysteresis/bare_15_2/bare_15_2_60_120.txt
Thayer School of Engineering        Instron 4442 Mechanical Testing System
7/9/2018 2:36:33 AM

  Force (N)	Extension (mm)	Not Used	Not Used	Not Used	     Hour	    Minute	    Second
    0.4654 	    2.0480 	    2.0000 	   36.0000 	   57.4263
    0.6485 	    2.2320 	    2.0000 	   36.0000 	   57.5183
    0.4959 	    2.4600 	    2.0000 	   36.0000 	   57.6323
    0.5112 	    2.6260 	    2.0000 	   36.0000 	   57.7153
    0.5264 	    2.8440 	    2.0000 	   36.0000 	   57.8243
    0.2976 	    3.0520 	    2.0000 	   36.0000 	   57.9284
    0.3891 	    3.2360 	    2.0000 	   36.0000 	   58.0204
    0.4959 	    3.4500 	    2.0000 	   36.0000 	   58.1274
    0.5570 	    3.6600 	    2.0000 	   36.0000 	   58.2324
    0.4959 	    3.8700 	    2.0000 	   36.0000 	   58.3364
    0.2060 	    4.0860 	    2.0000 	   36.0000 	   58.4454
    0.4501 	    4.2720 	    2.0000 	   36.0000 	   58.5384
    0.4349 	    4.4840 	    2.0000 	   36.0000 	   58.6444
    0.3586 	    4.6980 	    2.0000 	   36.0000 	   58.7514
    0.4654 	    4.9100 	    2.0000 	   36.0000 	   58.8574
    0.5264 	    5.0780 	    2.0000 	   36.0000 	   58.9414
    0.4349 	    5.2960 	    2.0000 	   36.0000 	   59.0504
    0.4349 	    5.4600 	    2.0000 	   36.0000 	   59.1324
    0.4349 	    5.6920 	    2.0000 	   36.0000 	   59.2484
    0.5570 	    5.8980 	    2.0000 	   36.0000 	   59.3514
    0.5875 	    6.1060 	    2.0000 	   36.0000 	   59.4554
    0.4196 	    6.2340 	    2.0000 	   36.0000 	   59.5194
    0.3128 	    6.4160 	    2.0000 	   36.0000 	   59.6095
    0.4959 	    6.5980 	    2.0000 	   36.0000 	   59.7005
    0.3891 	    6.7220 	    2.0000 	   36.0000 	   59.7625
    0.4501 	    6.9100 	    2.0000 	   36.0000 	   59.8565
    0.4349 	    7.0420 	    2.0000 	   36.0000 	   59.9225
    0.4654 	    7.1720 	    2.0000 	   36.0000 	   59.9875
    0.4349 	    7.2980 	    2.0000 	   37.0000 	    0.0505
    0.4959 	    7.4280 	    2.0000 	   37.0000 	    0.1155
    0.3738 	    7.5580 	    2.0000 	   37.0000 	    0.1805
    0.5112 	    7.6920 	    2.0000 	   37.0000 	    0.2475
    0.4959 	    7.8260 	    2.0000 	   37.0000 	    0.3145
    0.4959 	    7.9600 	    2.0000 	   37.0000 	    0.3815
    0.5264 	    8.0880 	    2.0000 	   37.0000 	    0.4455
    0.4959 	    8.2180 	    2.0000 	   37.0000 	    0.5105
    0.5875 	    8.3580 	    2.0000 	   37.0000 	    0.5805
    0.4349 	    8.4900 	    2.0000 	   37.0000 	    0.6465
    0.6332 	    8.6160 	    2.0000 	   37.0000 	    0.7095
    0.6332 	    8.7460 	    2.0000 	   37.0000 	    0.7745
    0.4501 	    8.8760 	    2.0000 	   37.0000 	    0.8395
    0.5264 	    8.9980 	    2.0000 	   37.0000 	    0.9005
    0.3738 	    9.1240 	    2.0000 	   37.0000 	    0.9635
    0.4959 	    9.2600 	    2.0000 	   37.0000 	    1.0315
    0.5570 	    9.3880 	    2.0000 	   37.0000 	    1.0955
    0.4501 	    9.5100 	    2.0000 	   37.0000 	    1.1565
    0.4959 	    9.6380 	    2.0000 	   37.0000 	    1.2205
    0.3586 	    9.7700 	    2.0000 	   37.0000 	    1.2865
    0.6485 	    9.8940 	    2.0000 	   37.0000 	    1.3486
    0.5264 	   10.0240 	    2.0000 	   37.0000 	    1.4136
    0.4349 	   10.1640 	    2.0000 	   37.0000 	    1.4836
    0.5112 	   10.2900 	    2.0000 	   37.0000 	    1.5466
    0.4959 	   10.4180 	    2.0000 	   37.0000 	    1.6106
    0.4807 	   10.5700 	    2.0000 	   37.0000 	    1.6866
    0.2213 	   10.6900 	    2.0000 	   37.0000 	    1.7466
    0.6027 	   10.8220 	    2.0000 	   37.0000 	    1.8126
    0.5722 	   10.9560 	    2.0000 	   37.0000 	    1.8796
    0.5722 	   11.0780 	    2.0000 	   37.0000 	    1.9406
    0.5112 	   11.2000 	    2.0000 	   37.0000 	    2.0016
    0.5875 	   11.3320 	    2.0000 	   37.0000 	    2.0676
    0.3738 	   11.4560 	    2.0000 	   37.0000 	    2.1296
    0.6027 	   11.5820 	    2.0000 	   37.0000 	    2.1926
    0.4501 	   11.7060 	    2.0000 	   37.0000 	    2.2546
    0.5875 	   11.8280 	    2.0000 	   37.0000 	    2.3156
    0.4501 	   11.9540 	    2.0000 	   37.0000 	    2.3786
    0.5417 	   12.0740 	    2.0000 	   37.0000 	    2.4386
    0.4807 	   12.1980 	    2.0000 	   37.0000 	    2.5006
    0.7248 	   12.3180 	    2.0000 	   37.0000 	    2.5606
    0.4196 	   12.4460 	    2.0000 	   37.0000 	    2.6246
    0.5570 	   12.5740 	    2.0000 	   37.0000 	    2.6886
    0.5417 	   12.6940 	    2.0000 	   37.0000 	    2.7486
    0.5112 	   12.8240 	    2.0000 	   37.0000 	    2.8136
    0.5264 	   12.9520 	    2.0000 	   37.0000 	    2.8776
    0.6638 	   13.0720 	    2.0000 	   37.0000 	    2.9376
    0.3281 	   13.2020 	    2.0000 	   37.0000 	    3.0026
    0.4959 	   13.3300 	    2.0000 	   37.0000 	    3.0666
    0.7401 	   13.4540 	    2.0000 	   37.0000 	    3.1287
    0.7401 	   13.5820 	    2.0000 	   37.0000 	    3.1927
    0.4196 	   13.7020 	    2.0000 	   37.0000 	    3.2527
    0.4196 	   13.8280 	    2.0000 	   37.0000 	    3.3157
    0.6180 	   13.9620 	    2.0000 	   37.0000 	    3.3827
    0.6180 	   14.0820 	    2.0000 	   37.0000 	    3.4427
    0.4654 	   14.2140 	    2.0000 	   37.0000 	    3.5087
    0.6638 	   14.3400 	    2.0000 	   37.0000 	    3.5717
    0.5875 	   14.4640 	    2.0000 	   37.0000 	    3.6337
    0.4807 	   14.5980 	    2.0000 	   37.0000 	    3.7007
    0.5875 	   14.7280 	    2.0000 	   37.0000 	    3.7657
    0.4501 	   14.8440 	    2.0000 	   37.0000 	    3.8237
    0.5112 	   14.9720 	    2.0000 	   37.0000 	    3.8877
    0.5722 	   15.0940 	    2.0000 	   37.0000 	    3.9487
    0.1907 	   15.2280 	    2.0000 	   37.0000 	    4.0157
    0.3738 	   15.4140 	    2.0000 	   37.0000 	    4.1087
    0.3128 	   15.5420 	    2.0000 	   37.0000 	    4.1727
    0.6485 	   15.6620 	    2.0000 	   37.0000 	    4.2327
    0.3891 	   15.7960 	    2.0000 	   37.0000 	    4.2997
    0.6638 	   15.9220 	    2.0000 	   37.0000 	    4.3627
    0.5875 	   16.0520 	    2.0000 	   37.0000 	    4.4277
    0.6943 	   16.1880 	    2.0000 	   37.0000 	    4.4957
    0.6638 	   16.3080 	    2.0000 	   37.0000 	    4.5557
    0.6027 	   16.4400 	    2.0000 	   37.0000 	    4.6217
    0.4654 	   16.5580 	    2.0000 	   37.0000 	    4.6807
    0.5875 	   16.6860 	    2.0000 	   37.0000 	    4.7447
    0.6790 	   16.8200 	    2.0000 	   37.0000 	    4.8117
    0.6332 	   16.9540 	    2.0000 	   37.0000 	    4.8788
    0.5570 	   17.0780 	    2.0000 	   37.0000 	    4.9408
    0.6027 	   17.2060 	    2.0000 	   37.0000 	    5.0048
    0.6943 	   17.3340 	    2.0000 	   37.0000 	    5.0688
    0.5264 	   17.4640 	    2.0000 	   37.0000 	    5.1338
    0.6180 	   17.5960 	    2.0000 	   37.0000 	    5.1998
    0.4807 	   17.7300 	    2.0000 	   37.0000 	    5.2668
    0.5722 	   17.8580 	    2.0000 	   37.0000 	    5.3308
    0.7248 	   17.9940 	    2.0000 	   37.0000 	    5.3988
    0.6638 	   18.1240 	    2.0000 	   37.0000 	    5.4638
    0.6332 	   18.2620 	    2.0000 	   37.0000 	    5.5328
    0.5264 	   18.3960 	    2.0000 	   37.0000 	    5.5998
    0.6332 	   18.5180 	    2.0000 	   37.0000 	    5.6608
    0.6943 	   18.6540 	    2.0000 	   37.0000 	    5.7288
    0.5722 	   18.7800 	    2.0000 	   37.0000 	    5.7918
    0.8316 	   18.9080 	    2.0000 	   37.0000 	    5.8558
    0.6943 	   19.0340 	    2.0000 	   37.0000 	    5.9188
    0.6790 	   19.1660 	    2.0000 	   37.0000 	    5.9848
    0.7706 	   19.2900 	    2.0000 	   37.0000 	    6.0468
    0.6332 	   19.4240 	    2.0000 	   37.0000 	    6.1138
    0.4807 	   19.5520 	    2.0000 	   37.0000 	    6.1778
    0.4349 	   19.6800 	    2.0000 	   37.0000 	    6.2418
    0.5722 	   19.8060 	    2.0000 	   37.0000 	    6.3048
    0.7858 	   19.9300 	    2.0000 	   37.0000 	    6.3668
    0.5722 	   20.0580 	    2.0000 	   37.0000 	    6.4308
    0.5112 	   20.1880 	    2.0000 	   37.0000 	    6.4958
    0.5570 	   20.3180 	    2.0000 	   37.0000 	    6.5608
    0.6485 	   20.4480 	    2.0000 	   37.0000 	    6.6259
    0.6332 	   20.5720 	    2.0000 	   37.0000 	    6.6879
    0.4196 	   20.6960 	    2.0000 	   37.0000 	    6.7499
    0.6943 	   20.8200 	    2.0000 	   37.0000 	    6.8119
    0.6180 	   20.9480 	    2.0000 	   37.0000 	    6.8759
    0.7858 	   21.0700 	    2.0000 	   37.0000 	    6.9369
    0.6790 	   21.2020 	    2.0000 	   37.0000 	    7.0029
    0.5264 	   21.3260 	    2.0000 	   37.0000 	    7.0649
    0.6332 	   21.4520 	    2.0000 	   37.0000 	    7.1279
    0.6790 	   21.5760 	    2.0000 	   37.0000 	    7.1899
    0.5722 	   21.7040 	    2.0000 	   37.0000 	    7.2539
    0.7248 	   21.8300 	    2.0000 	   37.0000 	    7.3169
    0.5722 	   21.9600 	    2.0000 	   37.0000 	    7.3819
    0.6485 	   22.0900 	    2.0000 	   37.0000 	    7.4469
    0.6485 	   22.2220 	    2.0000 	   37.0000 	    7.5129
    0.7706 	   22.3520 	    2.0000 	   37.0000 	    7.5779
    0.8164 	   22.4740 	    2.0000 	   37.0000 	    7.6389
    0.6485 	   22.6000 	    2.0000 	   37.0000 	    7.7019
    0.4196 	   22.7340 	    2.0000 	   37.0000 	    7.7689
    0.6638 	   22.8680 	    2.0000 	   37.0000 	    7.8359
    0.6943 	   22.9980 	    2.0000 	   37.0000 	    7.9009
    0.6027 	   23.1300 	    2.0000 	   37.0000 	    7.9669
    0.6485 	   23.2640 	    2.0000 	   37.0000 	    8.0339
    0.7401 	   23.3940 	    2.0000 	   37.0000 	    8.0989
    0.4044 	   23.5220 	    2.0000 	   37.0000 	    8.1629
    0.5722 	   23.6540 	    2.0000 	   37.0000 	    8.2289
    0.6485 	   23.7820 	    2.0000 	   37.0000 	    8.2929
    0.8164 	   23.9080 	    2.0000 	   37.0000 	    8.3560
    0.6790 	   24.0380 	    2.0000 	   37.0000 	    8.4210
    0.5417 	   24.1760 	    2.0000 	   37.0000 	    8.4900
    0.8621 	   24.3000 	    2.0000 	   37.0000 	    8.5520
    0.7095 	   24.4300 	    2.0000 	   37.0000 	    8.6170
    0.6790 	   24.5540 	    2.0000 	   37.0000 	    8.6790
    0.5722 	   24.6880 	    2.0000 	   37.0000 	    8.7460
    0.7706 	   24.8140 	    2.0000 	   37.0000 	    8.8090
    0.6790 	   24.9400 	    2.0000 	   37.0000 	    8.8720
    0.6638 	   25.0720 	    2.0000 	   37.0000 	    8.9380
    0.6638 	   25.2040 	    2.0000 	   37.0000 	    9.0040
    0.6027 	   25.3320 	    2.0000 	   37.0000 	    9.0680
    0.6790 	   25.4640 	    2.0000 	   37.0000 	    9.1340
    0.5875 	   25.5860 	    2.0000 	   37.0000 	    9.1950
    0.6180 	   25.7220 	    2.0000 	   37.0000 	    9.2630
    0.7706 	   25.8540 	    2.0000 	   37.0000 	    9.3290
    0.6485 	   25.9820 	    2.0000 	   37.0000 	    9.3930
    0.5875 	   26.1100 	    2.0000 	   37.0000 	    9.4570
    0.7706 	   26.2480 	    2.0000 	   37.0000 	    9.5260
    0.5570 	   26.3760 	    2.0000 	   37.0000 	    9.5900
    0.9384 	   26.5120 	    2.0000 	   37.0000 	    9.6580
    0.8011 	   26.7060 	    2.0000 	   37.0000 	    9.7550
    0.5875 	   26.8380 	    2.0000 	   37.0000 	    9.8210
    0.6180 	   26.9640 	    2.0000 	   37.0000 	    9.8840
    0.7858 	   27.0880 	    2.0000 	   37.0000 	    9.9460
    0.6790 	   27.2240 	    2.0000 	   37.0000 	   10.0140
    0.7706 	   27.3480 	    2.0000 	   37.0000 	   10.0760
    0.6943 	   27.4780 	    2.0000 	   37.0000 	   10.1411
    0.6790 	   27.6060 	    2.0000 	   37.0000 	   10.2051
    0.7095 	   27.7360 	    2.0000 	   37.0000 	   10.2701
    0.7401 	   27.8660 	    2.0000 	   37.0000 	   10.3351
    0.7858 	   27.9940 	    2.0000 	   37.0000 	   10.3991
    0.6638 	   28.1280 	    2.0000 	   37.0000 	   10.4661
    0.6638 	   28.2680 	    2.0000 	   37.0000 	   10.5361
    0.6943 	   28.4000 	    2.0000 	   37.0000 	   10.6021
    0.8469 	   28.5280 	    2.0000 	   37.0000 	   10.6661
    0.7095 	   28.6660 	    2.0000 	   37.0000 	   10.7351
    0.7706 	   28.8020 	    2.0000 	   37.0000 	   10.8031
    0.8164 	   28.9380 	    2.0000 	   37.0000 	   10.8711
    0.8621 	   29.0680 	    2.0000 	   37.0000 	   10.9361
    0.7706 	   29.2060 	    2.0000 	   37.0000 	   11.0051
    0.8316 	   29.3420 	    2.0000 	   37.0000 	   11.0731
    0.8316 	   29.4720 	    2.0000 	   37.0000 	   11.1381
    0.8621 	   29.6000 	    2.0000 	   37.0000 	   11.2021
    0.7095 	   29.7380 	    2.0000 	   37.0000 	   11.2711
    0.7095 	   29.8740 	    2.0000 	   37.0000 	   11.3391
    0.7095 	   30.0040 	    2.0000 	   37.0000 	   11.4041
    0.9232 	   30.1460 	    2.0000 	   37.0000 	   11.4751
    0.9079 	   30.2780 	    2.0000 	   37.0000 	   11.5411
    0.9995 	   30.4100 	    2.0000 	   37.0000 	   11.6071
    0.6943 	   30.5400 	    2.0000 	   37.0000 	   11.6721
    0.6485 	   30.6740 	    2.0000 	   37.0000 	   11.7391
    0.7401 	   30.8040 	    2.0000 	   37.0000 	   11.8041
    0.7706 	   30.9300 	    2.0000 	   37.0000 	   11.8672
    0.7706 	   31.0640 	    2.0000 	   37.0000 	   11.9342
    0.8774 	   31.2020 	    2.0000 	   37.0000 	   12.0032
    0.8011 	   31.3340 	    2.0000 	   37.0000 	   12.0692
    0.8316 	   31.4700 	    2.0000 	   37.0000 	   12.1372
    0.7553 	   31.6100 	    2.0000 	   37.0000 	   12.2072
    0.7401 	   31.7480 	    2.0000 	   37.0000 	   12.2762
    0.8164 	   31.8820 	    2.0000 	   37.0000 	   12.3432
    0.8621 	   32.0120 	    2.0000 	   37.0000 	   12.4082
    0.9384 	   32.1520 	    2.0000 	   37.0000 	   12.4782
    0.7553 	   32.2800 	    2.0000 	   37.0000 	   12.5422
    0.8774 	   32.4120 	    2.0000 	   37.0000 	   12.6082
    0.8621 	   32.5440 	    2.0000 	   37.0000 	   12.6742
    0.8164 	   32.6840 	    2.0000 	   37.0000 	   12.7442
    0.7248 	   32.8100 	    2.0000 	   37.0000 	   12.8072
    0.8164 	   32.9380 	    2.0000 	   37.0000 	   12.8712
    0.6943 	   33.0660 	    2.0000 	   37.0000 	   12.9352
    0.4349 	   33.2000 	    2.0000 	   37.0000 	   13.0022
    0.7706 	   33.3380 	    2.0000 	   37.0000 	   13.0712
    0.6332 	   33.4740 	    2.0000 	   37.0000 	   13.1392
    0.7706 	   33.6060 	    2.0000 	   37.0000 	   13.2052
    0.7401 	   33.7400 	    2.0000 	   37.0000 	   13.2722
    0.8927 	   33.8700 	    2.0000 	   37.0000 	   13.3372
    0.7401 	   34.0000 	    2.0000 	   37.0000 	   13.4022
    0.8469 	   34.1320 	    2.0000 	   37.0000 	   13.4682
    0.7401 	   34.2680 	    2.0000 	   37.0000 	   13.5362
    0.6790 	   34.4020 	    2.0000 	   37.0000 	   13.6033
    0.7553 	   34.5320 	    2.0000 	   37.0000 	   13.6683
    0.8164 	   34.6600 	    2.0000 	   37.0000 	   13.7323
    0.8164 	   34.7880 	    2.0000 	   37.0000 	   13.7963
    0.8011 	   34.9260 	    2.0000 	   37.0000 	   13.8653
    0.8469 	   35.0580 	    2.0000 	   37.0000 	   13.9313
    0.8011 	   35.1940 	    2.0000 	   37.0000 	   13.9993
    0.7248 	   35.3260 	    2.0000 	   37.0000 	   14.0653
    0.9842 	   35.4640 	    2.0000 	   37.0000 	   14.1343
    0.9232 	   35.6020 	    2.0000 	   37.0000 	   14.2033
    0.7401 	   35.7340 	    2.0000 	   37.0000 	   14.2693
    0.8927 	   35.8700 	    2.0000 	   37.0000 	   14.3373
    0.6943 	   36.0020 	    2.0000 	   37.0000 	   14.4033
    0.8621 	   36.1400 	    2.0000 	   37.0000 	   14.4723
    0.9842 	   36.2780 	    2.0000 	   37.0000 	   14.5413
    0.7095 	   36.4100 	    2.0000 	   37.0000 	   14.6073
    0.8927 	   36.5460 	    2.0000 	   37.0000 	   14.6753
    0.8927 	   36.6740 	    2.0000 	   37.0000 	   14.7393
    0.9079 	   36.8100 	    2.0000 	   37.0000 	   14.8073
    0.9537 	   36.9440 	    2.0000 	   37.0000 	   14.8743
    0.9232 	   37.0800 	    2.0000 	   37.0000 	   14.9423
    0.9384 	   37.2160 	    2.0000 	   37.0000 	   15.0103
    0.7706 	   37.3460 	    2.0000 	   37.0000 	   15.0753
    0.8316 	   37.4800 	    2.0000 	   37.0000 	   15.1423
    0.7858 	   37.6140 	    2.0000 	   37.0000 	   15.2093
    0.8469 	   37.7500 	    2.0000 	   37.0000 	   15.2773
    0.8164 	   37.8840 	    2.0000 	   37.0000 	   15.3444
    0.7553 	   38.0240 	    2.0000 	   37.0000 	   15.4144
    0.9079 	   38.1600 	    2.0000 	   37.0000 	   15.4824
    0.8316 	   38.2980 	    2.0000 	   37.0000 	   15.5514
    0.7706 	   38.4360 	    2.0000 	   37.0000 	   15.6204
    0.8469 	   38.5820 	    2.0000 	   37.0000 	   15.6934
    0.7401 	   38.7140 	    2.0000 	   37.0000 	   15.7594
    0.6790 	   38.8480 	    2.0000 	   37.0000 	   15.8264
    0.8927 	   38.9780 	    2.0000 	   37.0000 	   15.8914
    0.5112 	   39.1120 	    2.0000 	   37.0000 	   15.9584
    0.9384 	   39.2520 	    2.0000 	   37.0000 	   16.0284
    0.7553 	   39.3860 	    2.0000 	   37.0000 	   16.0954
    0.8316 	   39.5160 	    2.0000 	   37.0000 	   16.1604
    0.9079 	   39.6500 	    2.0000 	   37.0000 	   16.2274
    0.8469 	   39.7820 	    2.0000 	   37.0000 	   16.2934
    0.5570 	   39.9160 	    2.0000 	   37.0000 	   16.3604
    0.8469 	   40.0460 	    2.0000 	   37.0000 	   16.4254
    0.8774 	   40.1860 	    2.0000 	   37.0000 	   16.4954
    0.9995 	   40.3160 	    2.0000 	   37.0000 	   16.5604
    0.7706 	   40.4340 	    2.0000 	   37.0000 	   16.6194
    0.8774 	   40.5500 	    2.0000 	   37.0000 	   16.6774
    0.9232 	   40.6740 	    2.0000 	   37.0000 	   16.7394
    0.9384 	   40.7920 	    2.0000 	   37.0000 	   16.7984
    0.9079 	   40.9140 	    2.0000 	   37.0000 	   16.8594
    0.8774 	   41.0300 	    2.0000 	   37.0000 	   16.9174
    1.0758 	   41.1760 	    2.0000 	   37.0000 	   16.9904
    0.8774 	   41.3140 	    2.0000 	   37.0000 	   17.0584
    0.8621 	   41.4540 	    2.0000 	   37.0000 	   17.1285
    0.9689 	   41.5880 	    2.0000 	   37.0000 	   17.1955
    0.8621 	   41.7180 	    2.0000 	   37.0000 	   17.2605
    0.9232 	   41.8560 	    2.0000 	   37.0000 	   17.3295
    0.6638 	   41.9940 	    2.0000 	   37.0000 	   17.3985
    1.0147 	   42.1320 	    2.0000 	   37.0000 	   17.4675
    0.9689 	   42.2740 	    2.0000 	   37.0000 	   17.5385
    0.7858 	   42.4060 	    2.0000 	   37.0000 	   17.6045
    0.8927 	   42.5400 	    2.0000 	   37.0000 	   17.6715
    1.0300 	   42.6700 	    2.0000 	   37.0000 	   17.7365
    0.9384 	   42.8060 	    2.0000 	   37.0000 	   17.8045
    0.9079 	   42.9400 	    2.0000 	   37.0000 	   17.8715
    0.9384 	   43.0760 	    2.0000 	   37.0000 	   17.9395
    1.1215 	   43.2140 	    2.0000 	   37.0000 	   18.0085
    0.9842 	   43.3520 	    2.0000 	   37.0000 	   18.0775
    0.9995 	   43.4880 	    2.0000 	   37.0000 	   18.1455
    0.9842 	   43.6260 	    2.0000 	   37.0000 	   18.2145
    0.8469 	   43.7580 	    2.0000 	   37.0000 	   18.2805
    0.9842 	   43.8820 	    2.0000 	   37.0000 	   18.3425
    0.9537 	   44.0020 	    2.0000 	   37.0000 	   18.4025
    0.8011 	   44.1440 	    2.0000 	   37.0000 	   18.4735
    0.9842 	   44.2820 	    2.0000 	   37.0000 	   18.5425
    0.9079 	   44.4180 	    2.0000 	   37.0000 	   18.6105
    0.9537 	   44.5520 	    2.0000 	   37.0000 	   18.6775
    0.9537 	   44.6880 	    2.0000 	   37.0000 	   18.7445
    0.9079 	   44.8220 	    2.0000 	   37.0000 	   18.8125
    0.8621 	   44.9420 	    2.0000 	   37.0000 	   18.8726
    0.9384 	   45.0640 	    2.0000 	   37.0000 	   18.9336
    0.7095 	   45.1880 	    2.0000 	   37.0000 	   18.9956
    0.9842 	   45.3100 	    2.0000 	   37.0000 	   19.0566
    0.9537 	   45.4280 	    2.0000 	   37.0000 	   19.1156
    0.9537 	   45.5580 	    2.0000 	   37.0000 	   19.1806
    1.1063 	   45.6900 	    2.0000 	   37.0000 	   19.2466
    0.9537 	   45.8120 	    2.0000 	   37.0000 	   19.3066
    0.9995 	   45.9300 	    2.0000 	   37.0000 	   19.3666
    1.1368 	   46.0580 	    2.0000 	   37.0000 	   19.4306
    0.9384 	   46.2000 	    2.0000 	   37.0000 	   19.5016
    0.9995 	   46.3360 	    2.0000 	   37.0000 	   19.5696
    0.8469 	   46.4680 	    2.0000 	   37.0000 	   19.6356
    0.9689 	   46.6040 	    2.0000 	   37.0000 	   19.7036
    0.9079 	   46.7400 	    2.0000 	   37.0000 	   19.7716
    1.0300 	   46.8760 	    2.0000 	   37.0000 	   19.8396
    1.0300 	   47.0060 	    2.0000 	   37.0000 	   19.9046
    0.5722 	   47.1320 	    2.0000 	   37.0000 	   19.9676
    1.0910 	   47.2540 	    2.0000 	   37.0000 	   20.0286
    0.9079 	   47.3860 	    2.0000 	   37.0000 	   20.0946
    1.1673 	   47.5220 	    2.0000 	   37.0000 	   20.1626
    0.9689 	   47.6600 	    2.0000 	   37.0000 	   20.2316
    1.0605 	   47.7960 	    2.0000 	   37.0000 	   20.2996
    1.1673 	   47.9320 	    2.0000 	   37.0000 	   20.3676
    0.9842 	   48.0700 	    2.0000 	   37.0000 	   20.4366
    0.9384 	   48.2200 	    2.0000 	   37.0000 	   20.5116
    0.8927 	   48.3580 	    2.0000 	   37.0000 	   20.5807
    1.0758 	   48.4940 	    2.0000 	   37.0000 	   20.6487
    0.9384 	   48.6280 	    2.0000 	   37.0000 	   20.7157
    1.0605 	   48.7640 	    2.0000 	   37.0000 	   20.7837
    1.0605 	   48.9000 	    2.0000 	   37.0000 	   20.8517
    1.0452 	   49.0340 	    2.0000 	   37.0000 	   20.9177
    0.9689 	   49.1760 	    2.0000 	   37.0000 	   20.9897
    1.0605 	   49.3080 	    2.0000 	   37.0000 	   21.0557
    1.0605 	   49.4380 	    2.0000 	   37.0000 	   21.1207
    1.0147 	   49.5760 	    2.0000 	   37.0000 	   21.1897
    1.1368 	   49.6980 	    2.0000 	   37.0000 	   21.2507
    1.0147 	   49.8400 	    2.0000 	   37.0000 	   21.3217
    1.1673 	   49.9820 	    2.0000 	   37.0000 	   21.3927
    1.1063 	   50.1180 	    2.0000 	   37.0000 	   21.4607
    0.9995 	   50.2580 	    2.0000 	   37.0000 	   21.5307
    1.1368 	   50.3960 	    2.0000 	   37.0000 	   21.5997
    1.0452 	   50.5340 	    2.0000 	   37.0000 	   21.6687
    1.0300 	   50.6640 	    2.0000 	   37.0000 	   21.7337
    1.0300 	   50.7980 	    2.0000 	   37.0000 	   21.8007
    1.1521 	   50.9340 	    2.0000 	   37.0000 	   21.8687
    0.6790 	   51.0740 	    2.0000 	   37.0000 	   21.9387
    1.1826 	   51.2180 	    2.0000 	   37.0000 	   22.0107
    1.0910 	   51.3540 	    2.0000 	   37.0000 	   22.0787
    1.1673 	   51.4900 	    2.0000 	   37.0000 	   22.1467
    1.0605 	   51.6260 	    2.0000 	   37.0000 	   22.2147
    1.0300 	   51.7640 	    2.0000 	   37.0000 	   22.2837
    1.1368 	   51.8980 	    2.0000 	   37.0000 	   22.3508
    1.0758 	   52.0220 	    2.0000 	   37.0000 	   22.4118
    1.0758 	   52.1660 	    2.0000 	   37.0000 	   22.4848
    1.1063 	   52.3020 	    2.0000 	   37.0000 	   22.5528
    1.1826 	   52.4380 	    2.0000 	   37.0000 	   22.6208
    1.1215 	   52.5760 	    2.0000 	   37.0000 	   22.6898
    1.1673 	   52.7140 	    2.0000 	   37.0000 	   22.7588
    1.0605 	   52.8520 	    2.0000 	   37.0000 	   22.8278
    1.1215 	   52.9880 	    2.0000 	   37.0000 	   22.8958
    1.1826 	   53.1300 	    2.0000 	   37.0000 	   22.9668
    1.2436 	   53.2760 	    2.0000 	   37.0000 	   23.0398
    1.1826 	   53.4120 	    2.0000 	   37.0000 	   23.1078
    1.1978 	   53.5500 	    2.0000 	   37.0000 	   23.1768
    1.1521 	   53.6740 	    2.0000 	   37.0000 	   23.2388
    1.3199 	   53.8120 	    2.0000 	   37.0000 	   23.3078
    1.1978 	   53.9520 	    2.0000 	   37.0000 	   23.3778
    0.8164 	   54.0920 	    2.0000 	   37.0000 	   23.4478
    1.0452 	   54.2340 	    2.0000 	   37.0000 	   23.5188
    1.1215 	   54.3700 	    2.0000 	   37.0000 	   23.5868
    0.8469 	   54.5140 	    2.0000 	   37.0000 	   23.6588
    1.1978 	   54.6560 	    2.0000 	   37.0000 	   23.7298
    1.1521 	   54.7940 	    2.0000 	   37.0000 	   23.7988
    1.1368 	   54.9300 	    2.0000 	   37.0000 	   23.8668
    1.1673 	   55.0660 	    2.0000 	   37.0000 	   23.9348
    1.1063 	   55.2160 	    2.0000 	   37.0000 	   24.0098
    1.0758 	   55.3520 	    2.0000 	   37.0000 	   24.0779
    1.1521 	   55.4860 	    2.0000 	   37.0000 	   24.1449
    1.1368 	   55.6260 	    2.0000 	   37.0000 	   24.2149
    1.2436 	   55.7700 	    2.0000 	   37.0000 	   24.2869
    1.3199 	   55.9100 	    2.0000 	   37.0000 	   24.3569
    1.0300 	   56.0480 	    2.0000 	   37.0000 	   24.4259
    1.1368 	   56.1960 	    2.0000 	   37.0000 	   24.4999
    1.1826 	   56.3420 	    2.0000 	   37.0000 	   24.5729
    1.0300 	   56.4800 	    2.0000 	   37.0000 	   24.6419
    1.1826 	   56.6120 	    2.0000 	   37.0000 	   24.7079
    1.1826 	   56.7540 	    2.0000 	   37.0000 	   24.7789
    1.3046 	   56.8980 	    2.0000 	   37.0000 	   24.8509
    1.2284 	   57.0400 	    2.0000 	   37.0000 	   24.9219
    1.1826 	   57.1860 	    2.0000 	   37.0000 	   24.9949
    1.1673 	   57.3240 	    2.0000 	   37.0000 	   25.0639
    1.1521 	   57.4660 	    2.0000 	   37.0000 	   25.1349
    1.3352 	   57.6020 	    2.0000 	   37.0000 	   25.2029
    1.2131 	   57.7420 	    2.0000 	   37.0000 	   25.2729
    1.2589 	   57.8860 	    2.0000 	   37.0000 	   25.3449
    1.2589 	   58.0220 	    2.0000 	   37.0000 	   25.4129
    1.3962 	   58.1680 	    2.0000 	   37.0000 	   25.4859
    1.2284 	   58.3040 	    2.0000 	   37.0000 	   25.5539
    1.3504 	   58.4400 	    2.0000 	   37.0000 	   25.6219
    1.3046 	   58.5860 	    2.0000 	   37.0000 	   25.6949
    1.2436 	   58.7260 	    2.0000 	   37.0000 	   25.7649
    1.3504 	   58.8640 	    2.0000 	   37.0000 	   25.8340
    1.1215 	   58.9880 	    2.0000 	   37.0000 	   25.8960
    1.3199 	   59.1260 	    2.0000 	   37.0000 	   25.9650
    1.2131 	   59.2680 	    2.0000 	   37.0000 	   26.0360
    1.2894 	   59.4060 	    2.0000 	   37.0000 	   26.1050
    1.2131 	   59.5520 	    2.0000 	   37.0000 	   26.1780
    1.2131 	   59.6800 	    2.0000 	   37.0000 	   26.2420
    1.1368 	   59.8020 	    2.0000 	   37.0000 	   26.3030
    1.1978 	   59.9260 	    2.0000 	   37.0000 	   26.3650
    1.3352 	   60.0680 	    2.0000 	   37.0000 	   26.4350
    1.1521 	   60.2100 	    2.0000 	   37.0000 	   26.5070
    1.1826 	   60.3440 	    2.0000 	   37.0000 	   26.5740
    1.2284 	   60.4680 	    2.0000 	   37.0000 	   26.6360
    1.1673 	   60.5940 	    2.0000 	   37.0000 	   26.6990
    1.1368 	   60.7340 	    2.0000 	   37.0000 	   26.7690
    1.1673 	   60.8780 	    2.0000 	   37.0000 	   26.8410
    1.1826 	   61.0220 	    2.0000 	   37.0000 	   26.9130
    1.2284 	   61.1680 	    2.0000 	   37.0000 	   26.9860
    1.0910 	   61.3160 	    2.0000 	   37.0000 	   27.0600
    0.9537 	   61.4560 	    2.0000 	   37.0000 	   27.1300
    1.1368 	   61.5920 	    2.0000 	   37.0000 	   27.1980
    1.2894 	   61.7280 	    2.0000 	   37.0000 	   27.2660
    1.0605 	   61.8560 	    2.0000 	   37.0000 	   27.3300
    1.0452 	   62.0000 	    2.0000 	   37.0000 	   27.4020
    1.1368 	   62.1520 	    2.0000 	   37.0000 	   27.4780
    1.1215 	   62.2900 	    2.0000 	   37.0000 	   27.5471
    1.0758 	   62.4340 	    2.0000 	   37.0000 	   27.6191
    1.0452 	   62.5820 	    2.0000 	   37.0000 	   27.6931
    1.0605 	   62.7320 	    2.0000 	   37.0000 	   27.7681
    1.1215 	   62.8700 	    2.0000 	   37.0000 	   27.8371
    0.8927 	   63.0120 	    2.0000 	   37.0000 	   27.9081
    1.1063 	   63.1540 	    2.0000 	   37.0000 	   27.9791
    0.8927 	   63.2900 	    2.0000 	   37.0000 	   28.0471
    0.9384 	   63.4140 	    2.0000 	   37.0000 	   28.1091
    1.1826 	   63.5420 	    2.0000 	   37.0000 	   28.1731
    1.1368 	   63.6840 	    2.0000 	   37.0000 	   28.2441
    1.0758 	   63.8180 	    2.0000 	   37.0000 	   28.3111
    1.0300 	   63.9560 	    2.0000 	   37.0000 	   28.3801
    0.9537 	   64.0940 	    2.0000 	   37.0000 	   28.4491
    1.0300 	   64.2400 	    2.0000 	   37.0000 	   28.5221
    0.7401 	   64.3800 	    2.0000 	   37.0000 	   28.5921
    0.9232 	   64.5240 	    2.0000 	   37.0000 	   28.6641
    0.9995 	   64.6700 	    2.0000 	   37.0000 	   28.7371
    0.9384 	   64.8120 	    2.0000 	   37.0000 	   28.8081
    0.9689 	   64.9580 	    2.0000 	   37.0000 	   28.8811
    1.0147 	   65.1020 	    2.0000 	   37.0000 	   28.9531
    1.0605 	   65.2440 	    2.0000 	   37.0000 	   29.0241
    0.6943 	   65.3860 	    2.0000 	   37.0000 	   29.0951
    1.0300 	   65.5320 	    2.0000 	   37.0000 	   29.1681
    1.1978 	   65.6740 	    2.0000 	   37.0000 	   29.2391
    0.7095 	   65.8120 	    2.0000 	   37.0000 	   29.3082
    0.8621 	   65.9560 	    2.0000 	   37.0000 	   29.3802
    1.0605 	   66.0960 	    2.0000 	   37.0000 	   29.4502
    0.9537 	   66.2420 	    2.0000 	   37.0000 	   29.5232
    0.9384 	   66.3860 	    2.0000 	   37.0000 	   29.5952
    1.1063 	   66.5300 	    2.0000 	   37.0000 	   29.6672
    0.8927 	   66.6680 	    2.0000 	   37.0000 	   29.7362
    0.6638 	   66.8100 	    2.0000 	   37.0000 	   29.8072
    1.0910 	   66.9520 	    2.0000 	   37.0000 	   29.8782
    0.8927 	   67.0940 	    2.0000 	   37.0000 	   29.9492
    0.8774 	   67.2380 	    2.0000 	   37.0000 	   30.0212
    0.9842 	   67.3800 	    2.0000 	   37.0000 	   30.0922
    1.1063 	   67.5220 	    2.0000 	   37.0000 	   30.1632
    0.8774 	   67.6700 	    2.0000 	   37.0000 	   30.2372
    0.9537 	   67.8120 	    2.0000 	   37.0000 	   30.3082
    0.9537 	   67.9560 	    2.0000 	   37.0000 	   30.3802
    0.9995 	   68.1040 	    2.0000 	   37.0000 	   30.4542
    0.9232 	   68.2540 	    2.0000 	   37.0000 	   30.5292
    0.9232 	   68.3940 	    2.0000 	   37.0000 	   30.5992
    0.8927 	   68.5360 	    2.0000 	   37.0000 	   30.6702
    0.7401 	   68.6820 	    2.0000 	   37.0000 	   30.7432
    0.9079 	   68.8280 	    2.0000 	   37.0000 	   30.8162
    0.9842 	   68.9760 	    2.0000 	   37.0000 	   30.8902
    0.8621 	   69.1140 	    2.0000 	   37.0000 	   30.9592
    0.9232 	   69.2480 	    2.0000 	   37.0000 	   31.0262
    0.8316 	   69.3780 	    2.0000 	   37.0000 	   31.0913
    0.8927 	   69.5060 	    2.0000 	   37.0000 	   31.1543
    0.6638 	   69.6340 	    2.0000 	   37.0000 	   31.2193
    0.7706 	   69.7660 	    2.0000 	   37.0000 	   31.2853
    0.9689 	   69.9100 	    2.0000 	   37.0000 	   31.3573
    0.8316 	   70.0560 	    2.0000 	   37.0000 	   31.4303
    0.6027 	   70.2020 	    2.0000 	   37.0000 	   31.5033
    0.7553 	   70.3340 	    2.0000 	   37.0000 	   31.5693
    0.8774 	   70.4620 	    2.0000 	   37.0000 	   31.6333
    0.7401 	   70.5900 	    2.0000 	   37.0000 	   31.6973
    0.9537 	   70.7160 	    2.0000 	   37.0000 	   31.7603
    0.5417 	   70.8420 	    2.0000 	   37.0000 	   31.8233
    0.5112 	   70.9900 	    2.0000 	   37.0000 	   31.8973
    0.8011 	   71.1360 	    2.0000 	   37.0000 	   31.9703
    0.5875 	   71.2860 	    2.0000 	   37.0000 	   32.0453
    0.7858 	   71.4240 	    2.0000 	   37.0000 	   32.1143
    0.8774 	   71.5680 	    2.0000 	   37.0000 	   32.1863
    0.7401 	   71.7120 	    2.0000 	   37.0000 	   32.2583
    0.4807 	   71.8560 	    2.0000 	   37.0000 	   32.3303
    0.7706 	   72.0020 	    2.0000 	   37.0000 	   32.4023
    0.8316 	   72.1480 	    2.0000 	   37.0000 	   32.4763
    0.7858 	   72.2880 	    2.0000 	   37.0000 	   32.5463
    0.7858 	   72.4340 	    2.0000 	   37.0000 	   32.6193
    0.8164 	   72.5820 	    2.0000 	   37.0000 	   32.6933
    0.7706 	   72.7360 	    2.0000 	   37.0000 	   32.7703
    0.8164 	   72.8800 	    2.0000 	   37.0000 	   32.8424
    0.9384 	   73.0200 	    2.0000 	   37.0000 	   32.9124
    0.9537 	   73.1740 	    2.0000 	   37.0000 	   32.9894
    0.7248 	   73.3180 	    2.0000 	   37.0000 	   33.0614
    0.6790 	   73.4600 	    2.0000 	   37.0000 	   33.1324
    0.8774 	   73.6040 	    2.0000 	   37.0000 	   33.2044
    0.7248 	   73.7560 	    2.0000 	   37.0000 	   33.2804
    0.7706 	   73.9000 	    2.0000 	   37.0000 	   33.3524
    0.8164 	   74.0520 	    2.0000 	   37.0000 	   33.4284
    0.8774 	   74.2060 	    2.0000 	   37.0000 	   33.5054
    0.8011 	   74.3500 	    2.0000 	   37.0000 	   33.5774
    0.8621 	   74.5100 	    2.0000 	   37.0000 	   33.6574
    0.5112 	   74.6600 	    2.0000 	   37.0000 	   33.7324
    0.6638 	   74.8040 	    2.0000 	   37.0000 	   33.8044
    0.8621 	   74.9400 	    2.0000 	   37.0000 	   33.8724
    0.6638 	   75.0720 	    2.0000 	   37.0000 	   33.9384
    0.8621 	   75.2180 	    2.0000 	   37.0000 	   34.0114
    0.8621 	   75.3660 	    2.0000 	   37.0000 	   34.0854
    0.9232 	   75.5080 	    2.0000 	   37.0000 	   34.1564
    0.6332 	   75.6560 	    2.0000 	   37.0000 	   34.2304
    0.8011 	   75.8040 	    2.0000 	   37.0000 	   34.3044
    0.6180 	   75.9500 	    2.0000 	   37.0000 	   34.3774
    0.8927 	   76.0940 	    2.0000 	   37.0000 	   34.4494
    0.7248 	   76.2520 	    2.0000 	   37.0000 	   34.5275
    0.8011 	   76.4000 	    2.0000 	   37.0000 	   34.6015
    0.6790 	   76.5440 	    2.0000 	   37.0000 	   34.6735
    0.6943 	   76.6940 	    2.0000 	   37.0000 	   34.7485
    0.7401 	   76.8400 	    2.0000 	   37.0000 	   34.8215
    0.5722 	   76.9880 	    2.0000 	   37.0000 	   34.8955
    0.6943 	   77.1320 	    2.0000 	   37.0000 	   34.9675
    0.8164 	   77.2840 	    2.0000 	   37.0000 	   35.0435
    0.6943 	   77.4260 	    2.0000 	   37.0000 	   35.1145
    0.7553 	   77.5740 	    2.0000 	   37.0000 	   35.1885
    0.7706 	   77.7220 	    2.0000 	   37.0000 	   35.2625
    0.7095 	   77.8680 	    2.0000 	   37.0000 	   35.3355
    0.6485 	   78.0180 	    2.0000 	   37.0000 	   35.4105
    0.7553 	   78.1720 	    2.0000 	   37.0000 	   35.4875
    0.8164 	   78.3180 	    2.0000 	   37.0000 	   35.5605
    0.6943 	   78.4640 	    2.0000 	   37.0000 	   35.6335
    0.6332 	   78.6120 	    2.0000 	   37.0000 	   35.7075
    0.6790 	   78.7600 	    2.0000 	   37.0000 	   35.7815
    0.7401 	   78.9060 	    2.0000 	   37.0000 	   35.8545
    0.7858 	   79.0520 	    2.0000 	   37.0000 	   35.9275
    0.5112 	   79.2000 	    2.0000 	   37.0000 	   36.0015
    0.7401 	   79.3480 	    2.0000 	   37.0000 	   36.0755
    0.7858 	   79.4940 	    2.0000 	   37.0000 	   36.1485
    0.7095 	   79.6400 	    2.0000 	   37.0000 	   36.2215
    0.0992 	   79.7920 	    2.0000 	   37.0000 	   36.2976
    0.6180 	   79.9320 	    2.0000 	   37.0000 	   36.3676
    0.6485 	   80.0720 	    2.0000 	   37.0000 	   36.4376
    0.6485 	   80.2160 	    2.0000 	   37.0000 	   36.5096
    0.5112 	   80.3480 	    2.0000 	   37.0000 	   36.5756
    0.7095 	   80.4800 	    2.0000 	   37.0000 	   36.6416
    0.6485 	   80.6120 	    2.0000 	   37.0000 	   36.7076
    0.7858 	   80.7460 	    2.0000 	   37.0000 	   36.7746
    0.6790 	   80.8740 	    2.0000 	   37.0000 	   36.8386
    0.5875 	   81.0140 	    2.0000 	   37.0000 	   36.9086
    0.7095 	   81.1600 	    2.0000 	   37.0000 	   36.9816
    0.6485 	   81.3120 	    2.0000 	   37.0000 	   37.0576
    0.7553 	   81.4680 	    2.0000 	   37.0000 	   37.1356
    0.5112 	   81.6220 	    2.0000 	   37.0000 	   37.2126
    0.6180 	   81.7640 	    2.0000 	   37.0000 	   37.2836
    0.6638 	   81.9120 	    2.0000 	   37.0000 	   37.3576
    0.6180 	   82.0640 	    2.0000 	   37.0000 	   37.4336
    0.7553 	   82.2240 	    2.0000 	   37.0000 	   37.5136
    0.4959 	   82.3740 	    2.0000 	   37.0000 	   37.5886
    0.5875 	   82.5280 	    2.0000 	   37.0000 	   37.6656
    0.6638 	   82.6760 	    2.0000 	   37.0000 	   37.7396
    0.6638 	   82.8260 	    2.0000 	   37.0000 	   37.8146
    0.7858 	   82.9800 	    2.0000 	   37.0000 	   37.8916
    0.7095 	   83.1320 	    2.0000 	   37.0000 	   37.9676
    0.6180 	   83.2860 	    2.0000 	   37.0000 	   38.0447
    0.6790 	   83.4340 	    2.0000 	   37.0000 	   38.1187
    0.6485 	   83.5840 	    2.0000 	   37.0000 	   38.1937
    0.6790 	   83.7300 	    2.0000 	   37.0000 	   38.2667
    0.3891 	   83.8840 	    2.0000 	   37.0000 	   38.3437
    0.4501 	   84.0300 	    2.0000 	   37.0000 	   38.4167
    0.6332 	   84.1880 	    2.0000 	   37.0000 	   38.4957
    0.6943 	   84.3360 	    2.0000 	   37.0000 	   38.5697
    0.3891 	   84.4780 	    2.0000 	   37.0000 	   38.6407
    0.5570 	   84.6220 	    2.0000 	   37.0000 	   38.7127
    0.8316 	   84.7740 	    2.0000 	   37.0000 	   38.7887
    0.5570 	   84.9240 	    2.0000 	   37.0000 	   38.8637
    0.7401 	   85.0720 	    2.0000 	   37.0000 	   38.9377
    0.6485 	   85.2160 	    2.0000 	   37.0000 	   39.0097
    0.5112 	   85.3620 	    2.0000 	   37.0000 	   39.0827
    0.5722 	   85.5200 	    2.0000 	   37.0000 	   39.1617
    0.6027 	   85.6660 	    2.0000 	   37.0000 	   39.2347
    0.5417 	   85.8180 	    2.0000 	   37.0000 	   39.3107
    0.5264 	   85.9720 	    2.0000 	   37.0000 	   39.3877
    0.5722 	   86.1160 	    2.0000 	   37.0000 	   39.4597
    0.5875 	   86.2660 	    2.0000 	   37.0000 	   39.5347
    0.6790 	   86.4100 	    2.0000 	   37.0000 	   39.6067
    0.3891 	   86.5820 	    2.0000 	   37.0000 	   39.6927
    0.4654 	   86.7260 	    2.0000 	   37.0000 	   39.7647
    0.6332 	   86.8760 	    2.0000 	   37.0000 	   39.8398
    0.7706 	   87.0240 	    2.0000 	   37.0000 	   39.9138
    0.5722 	   87.1640 	    2.0000 	   37.0000 	   39.9838
    0.5112 	   87.2940 	    2.0000 	   37.0000 	   40.0488
    0.6027 	   87.4240 	    2.0000 	   37.0000 	   40.1138
    0.6638 	   87.5740 	    2.0000 	   37.0000 	   40.1888
    0.6790 	   87.7100 	    2.0000 	   37.0000 	   40.2568
    0.6180 	   87.8480 	    2.0000 	   37.0000 	   40.3258
    0.6790 	   87.9960 	    2.0000 	   37.0000 	   40.3998
    0.6180 	   88.1460 	    2.0000 	   37.0000 	   40.4748
    0.6943 	   88.3040 	    2.0000 	   37.0000 	   40.5538
    0.6027 	   88.4580 	    2.0000 	   37.0000 	   40.6308
    0.6180 	   88.6040 	    2.0000 	   37.0000 	   40.7038
    0.6332 	   88.7540 	    2.0000 	   37.0000 	   40.7788
    0.3128 	   88.9060 	    2.0000 	   37.0000 	   40.8548
    0.5112 	   89.0580 	    2.0000 	   37.0000 	   40.9308
    0.5112 	   89.2080 	    2.0000 	   37.0000 	   41.0058
    0.5417 	   89.3560 	    2.0000 	   37.0000 	   41.0798
    0.6332 	   89.5060 	    2.0000 	   37.0000 	   41.1548
    0.5264 	   89.6460 	    2.0000 	   37.0000 	   41.2248
    0.7553 	   89.7780 	    2.0000 	   37.0000 	   41.2908
    0.5417 	   89.9140 	    2.0000 	   37.0000 	   41.3588
    0.6332 	   90.0600 	    2.0000 	   37.0000 	   41.4318
    0.6180 	   90.2220 	    2.0000 	   37.0000 	   41.5128
    0.6485 	   90.3720 	    2.0000 	   37.0000 	   41.5879
    0.6943 	   90.5240 	    2.0000 	   37.0000 	   41.6639
    0.6027 	   90.6780 	    2.0000 	   37.0000 	   41.7409
    0.6332 	   90.8280 	    2.0000 	   37.0000 	   41.8159
    0.6332 	   90.9800 	    2.0000 	   37.0000 	   41.8919
    0.5264 	   91.1280 	    2.0000 	   37.0000 	   41.9659
    0.5570 	   91.2820 	    2.0000 	   37.0000 	   42.0429
    0.5875 	   91.4360 	    2.0000 	   37.0000 	   42.1199
    0.6943 	   91.5920 	    2.0000 	   37.0000 	   42.1979
    0.4959 	   91.7400 	    2.0000 	   37.0000 	   42.2719
    0.5875 	   91.8880 	    2.0000 	   37.0000 	   42.3459
    0.5264 	   92.0420 	    2.0000 	   37.0000 	   42.4229
    0.3738 	   92.2020 	    2.0000 	   37.0000 	   42.5029
    0.6332 	   92.3520 	    2.0000 	   37.0000 	   42.5779
    0.5112 	   92.5000 	    2.0000 	   37.0000 	   42.6519
    0.4959 	   92.6520 	    2.0000 	   37.0000 	   42.7279
    0.6638 	   92.8060 	    2.0000 	   37.0000 	   42.8049
    0.6027 	   92.9580 	    2.0000 	   37.0000 	   42.8809
    0.5722 	   93.1040 	    2.0000 	   37.0000 	   42.9539
    0.6638 	   93.2540 	    2.0000 	   37.0000 	   43.0289
    0.6027 	   93.4060 	    2.0000 	   37.0000 	   43.1049
    0.5722 	   93.5580 	    2.0000 	   37.0000 	   43.1809
    0.6485 	   93.7100 	    2.0000 	   37.0000 	   43.2570
    0.3281 	   93.8620 	    2.0000 	   37.0000 	   43.3330
    0.6638 	   94.0120 	    2.0000 	   37.0000 	   43.4080
    0.4807 	   94.1760 	    2.0000 	   37.0000 	   43.4900
    0.5417 	   94.3280 	    2.0000 	   37.0000 	   43.5660
    0.4044 	   94.4800 	    2.0000 	   37.0000 	   43.6420
    0.5722 	   94.6360 	    2.0000 	   37.0000 	   43.7200
    0.4044 	   94.7880 	    2.0000 	   37.0000 	   43.7960
    0.4349 	   94.9360 	    2.0000 	   37.0000 	   43.8700
    0.5264 	   95.0900 	    2.0000 	   37.0000 	   43.9470
    0.6027 	   95.2400 	    2.0000 	   37.0000 	   44.0220
    0.4654 	   95.3940 	    2.0000 	   37.0000 	   44.0990
    0.5417 	   95.5520 	    2.0000 	   37.0000 	   44.1780
    0.4654 	   95.7020 	    2.0000 	   37.0000 	   44.2530
    0.5264 	   95.8540 	    2.0000 	   37.0000 	   44.3290
    0.7095 	   96.0060 	    2.0000 	   37.0000 	   44.4050
    0.6027 	   96.1660 	    2.0000 	   37.0000 	   44.4850
    0.6180 	   96.3200 	    2.0000 	   37.0000 	   44.5620
    0.5264 	   96.4720 	    2.0000 	   37.0000 	   44.6380
    0.6790 	   96.6240 	    2.0000 	   37.0000 	   44.7140
    0.5722 	   96.7780 	    2.0000 	   37.0000 	   44.7910
    0.4959 	   96.9280 	    2.0000 	   37.0000 	   44.8660
    0.6027 	   97.0800 	    2.0000 	   37.0000 	   44.9420
    0.5112 	   97.2300 	    2.0000 	   37.0000 	   45.0170
    0.6027 	   97.3820 	    2.0000 	   37.0000 	   45.0931
    0.4807 	   97.5360 	    2.0000 	   37.0000 	   45.1701
    0.5112 	   97.6860 	    2.0000 	   37.0000 	   45.2451
    0.5264 	   97.8360 	    2.0000 	   37.0000 	   45.3201
    0.3281 	   97.9900 	    2.0000 	   37.0000 	   45.3971
    0.5570 	   98.1380 	    2.0000 	   37.0000 	   45.4711
    0.4654 	   98.3000 	    2.0000 	   37.0000 	   45.5521
    0.4196 	   98.4540 	    2.0000 	   37.0000 	   45.6291
    0.5417 	   98.6080 	    2.0000 	   37.0000 	   45.7061
    0.4959 	   98.7580 	    2.0000 	   37.0000 	   45.7811
    0.4044 	   98.9100 	    2.0000 	   37.0000 	   45.8571
    0.4349 	   99.0620 	    2.0000 	   37.0000 	   45.9331
    0.2213 	   99.2140 	    2.0000 	   37.0000 	   46.0091
    0.6027 	   99.3560 	    2.0000 	   37.0000 	   46.0801
    0.5264 	   99.4960 	    2.0000 	   37.0000 	   46.1501
    0.1602 	   99.6460 	    2.0000 	   37.0000 	   46.2251
    0.4807 	   99.8040 	    2.0000 	   37.0000 	   46.3041
    0.4807 	   99.9640 	    2.0000 	   37.0000 	   46.3841
    0.4044 	  100.1140 	    2.0000 	   37.0000 	   46.4591
    0.4196 	  100.2740 	    2.0000 	   37.0000 	   46.5391
    0.4654 	  100.4260 	    2.0000 	   37.0000 	   46.6151
    0.4807 	  100.5800 	    2.0000 	   37.0000 	   46.6921
    0.5722 	  100.7340 	    2.0000 	   37.0000 	   46.7691
    0.4349 	  100.8800 	    2.0000 	   37.0000 	   46.8422
    0.4501 	  101.0220 	    2.0000 	   37.0000 	   46.9132
    0.5264 	  101.1700 	    2.0000 	   37.0000 	   46.9872
    0.3281 	  101.3220 	    2.0000 	   37.0000 	   47.0632
    0.4654 	  101.4800 	    2.0000 	   37.0000 	   47.1422
    0.6180 	  101.6380 	    2.0000 	   37.0000 	   47.2212
    0.4807 	  101.7920 	    2.0000 	   37.0000 	   47.2982
    0.3433 	  101.9480 	    2.0000 	   37.0000 	   47.3762
    0.4044 	  102.1040 	    2.0000 	   37.0000 	   47.4542
    0.5264 	  102.2680 	    2.0000 	   37.0000 	   47.5362
    0.3586 	  102.4260 	    2.0000 	   37.0000 	   47.6152
    0.5875 	  102.5760 	    2.0000 	   37.0000 	   47.6902
    0.3891 	  102.7420 	    2.0000 	   37.0000 	   47.7732
    0.4807 	  102.8980 	    2.0000 	   37.0000 	   47.8512
    0.4654 	  103.0560 	    2.0000 	   37.0000 	   47.9302
    0.6180 	  103.2100 	    2.0000 	   37.0000 	   48.0072
    0.4654 	  103.3500 	    2.0000 	   37.0000 	   48.0772
    0.5722 	  103.4900 	    2.0000 	   37.0000 	   48.1472
    0.6180 	  103.6320 	    2.0000 	   37.0000 	   48.2182
    0.4501 	  103.7660 	    2.0000 	   37.0000 	   48.2852
    0.3738 	  103.9120 	    2.0000 	   37.0000 	   48.3582
    0.3738 	  104.0660 	    2.0000 	   37.0000 	   48.4352
    0.5570 	  104.2260 	    2.0000 	   37.0000 	   48.5153
    0.5112 	  104.3800 	    2.0000 	   37.0000 	   48.5923
    0.4349 	  104.5360 	    2.0000 	   37.0000 	   48.6703
    0.5112 	  104.6880 	    2.0000 	   37.0000 	   48.7463
    0.5875 	  104.8440 	    2.0000 	   37.0000 	   48.8243
    0.4196 	  105.0020 	    2.0000 	   37.0000 	   48.9033
    0.4807 	  105.1600 	    2.0000 	   37.0000 	   48.9823
    0.5264 	  105.3140 	    2.0000 	   37.0000 	   49.0593
    0.5264 	  105.4700 	    2.0000 	   37.0000 	   49.1373
    0.4349 	  105.6280 	    2.0000 	   37.0000 	   49.2163
    0.3738 	  105.7780 	    2.0000 	   37.0000 	   49.2913
    0.4807 	  105.9300 	    2.0000 	   37.0000 	   49.3673
    0.2060 	  106.0840 	    2.0000 	   37.0000 	   49.4443
    0.2518 	  106.2400 	    2.0000 	   37.0000 	   49.5223
    0.5112 	  106.3980 	    2.0000 	   37.0000 	   49.6013
    0.6332 	  106.5540 	    2.0000 	   37.0000 	   49.6793
    0.3433 	  106.7120 	    2.0000 	   37.0000 	   49.7583
    0.4044 	  106.8680 	    2.0000 	   37.0000 	   49.8363
    0.4044 	  107.0200 	    2.0000 	   37.0000 	   49.9123
    0.4196 	  107.1820 	    2.0000 	   37.0000 	   49.9933
    0.4349 	  107.3360 	    2.0000 	   37.0000 	   50.0703
    0.3586 	  107.4920 	    2.0000 	   37.0000 	   50.1483
    0.4654 	  107.6440 	    2.0000 	   37.0000 	   50.2243
    0.4654 	  107.8040 	    2.0000 	   37.0000 	   50.3044
    0.2823 	  107.9600 	    2.0000 	   37.0000 	   50.3824
    0.2518 	  108.1200 	    2.0000 	   37.0000 	   50.4624
    0.3738 	  108.2740 	    2.0000 	   37.0000 	   50.5394
    0.2213 	  108.4260 	    2.0000 	   37.0000 	   50.6154
    0.5875 	  108.5800 	    2.0000 	   37.0000 	   50.6924
    0.4196 	  108.7360 	    2.0000 	   37.0000 	   50.7704
    0.3128 	  108.8920 	    2.0000 	   37.0000 	   50.8484
    0.4349 	  109.0500 	    2.0000 	   37.0000 	   50.9274
    0.5570 	  109.2080 	    2.0000 	   37.0000 	   51.0064
    0.4501 	  109.3660 	    2.0000 	   37.0000 	   51.0854
    0.3433 	  109.5180 	    2.0000 	   37.0000 	   51.1614
    0.4501 	  109.6700 	    2.0000 	   37.0000 	   51.2374
    0.5875 	  109.8180 	    2.0000 	   37.0000 	   51.3114
    0.4654 	  109.9720 	    2.0000 	   37.0000 	   51.3884
    0.4807 	  110.1380 	    2.0000 	   37.0000 	   51.4714
    0.4196 	  110.3040 	    2.0000 	   37.0000 	   51.5544
    0.3738 	  110.4660 	    2.0000 	   37.0000 	   51.6354
    0.4349 	  110.6160 	    2.0000 	   37.0000 	   51.7104
    0.3891 	  110.7740 	    2.0000 	   37.0000 	   51.7894
    0.4959 	  110.9260 	    2.0000 	   37.0000 	   51.8654
    0.5417 	  111.0820 	    2.0000 	   37.0000 	   51.9434
    0.4196 	  111.2380 	    2.0000 	   37.0000 	   52.0205
    0.4501 	  111.3960 	    2.0000 	   37.0000 	   52.0995
    0.2823 	  111.5560 	    2.0000 	   37.0000 	   52.1795
    0.3586 	  111.7080 	    2.0000 	   37.0000 	   52.2555
    0.5112 	  111.8680 	    2.0000 	   37.0000 	   52.3355
    0.2823 	  112.0200 	    2.0000 	   37.0000 	   52.4115
    0.3128 	  112.1740 	    2.0000 	   37.0000 	   52.4885
    0.4959 	  112.3340 	    2.0000 	   37.0000 	   52.5685
    0.3891 	  112.4860 	    2.0000 	   37.0000 	   52.6445
    0.3433 	  112.6420 	    2.0000 	   37.0000 	   52.7225
    0.3433 	  112.7860 	    2.0000 	   37.0000 	   52.7945
    0.2823 	  112.9280 	    2.0000 	   37.0000 	   52.8655
    0.4044 	  113.0740 	    2.0000 	   37.0000 	   52.9385
    0.4349 	  113.2260 	    2.0000 	   37.0000 	   53.0145
    0.4196 	  113.3860 	    2.0000 	   37.0000 	   53.0945
    0.3586 	  113.5480 	    2.0000 	   37.0000 	   53.1755
    0.3738 	  113.7020 	    2.0000 	   37.0000 	   53.2525
    0.4196 	  113.8560 	    2.0000 	   37.0000 	   53.3295
    0.2976 	  113.9980 	    2.0000 	   37.0000 	   53.4005
    0.4196 	  114.1420 	    2.0000 	   37.0000 	   53.4725
    0.3738 	  114.2960 	    2.0000 	   37.0000 	   53.5495
    0.3128 	  114.4480 	    2.0000 	   37.0000 	   53.6255
    0.3586 	  114.6080 	    2.0000 	   37.0000 	   53.7055
    0.2518 	  114.7620 	    2.0000 	   37.0000 	   53.7826
    0.2518 	  114.9100 	    2.0000 	   37.0000 	   53.8566
    0.3586 	  115.0540 	    2.0000 	   37.0000 	   53.9276
    0.4044 	  115.2040 	    2.0000 	   37.0000 	   54.0036
    0.3738 	  115.3480 	    2.0000 	   37.0000 	   54.0756
    0.2976 	  115.5080 	    2.0000 	   37.0000 	   54.1556
    0.3433 	  115.6600 	    2.0000 	   37.0000 	   54.2316
    0.4196 	  115.8020 	    2.0000 	   37.0000 	   54.3026
    0.3586 	  115.9460 	    2.0000 	   37.0000 	   54.3746
    0.4807 	  116.0860 	    2.0000 	   37.0000 	   54.4446
    0.2670 	  116.2260 	    2.0000 	   37.0000 	   54.5146
    0.3738 	  116.3680 	    2.0000 	   37.0000 	   54.5856
    0.3128 	  116.5080 	    2.0000 	   37.0000 	   54.6556
    0.2976 	  116.6500 	    2.0000 	   37.0000 	   54.7266
    0.2213 	  116.7920 	    2.0000 	   37.0000 	   54.7976
    0.2518 	  116.9480 	    2.0000 	   37.0000 	   54.8756
    0.3128 	  117.1060 	    2.0000 	   37.0000 	   54.9546
    0.3891 	  117.2640 	    2.0000 	   37.0000 	   55.0336
    0.3281 	  117.4220 	    2.0000 	   37.0000 	   55.1126
    0.2823 	  117.5800 	    2.0000 	   37.0000 	   55.1916
    0.2823 	  117.7420 	    2.0000 	   37.0000 	   55.2726
    0.2518 	  117.9040 	    2.0000 	   37.0000 	   55.3536
    0.4196 	  118.0620 	    2.0000 	   37.0000 	   55.4326
    0.5264 	  118.2260 	    2.0000 	   37.0000 	   55.5146
    0.2976 	  118.3820 	    2.0000 	   37.0000 	   55.5927
    0.2518 	  118.5460 	    2.0000 	   37.0000 	   55.6747
    0.1907 	  118.7020 	    2.0000 	   37.0000 	   55.7527
    0.6180 	  118.8600 	    2.0000 	   37.0000 	   55.8317
    0.2518 	  119.0200 	    2.0000 	   37.0000 	   55.9117
    0.3433 	  119.1740 	    2.0000 	   37.0000 	   55.9887
    0.3586 	  119.3240 	    2.0000 	   37.0000 	   56.0637
    0.3281 	  119.4840 	    2.0000 	   37.0000 	   56.1437
    0.4959 	  119.6460 	    2.0000 	   37.0000 	   56.2247
    0.4196 	  119.8060 	    2.0000 	   37.0000 	   56.3047
    0.2060 	  119.9660 	    2.0000 	   37.0000 	   56.3847
    0.5417 	  120.1280 	    2.0000 	   37.0000 	   56.4657
    0.2976 	  120.3000 	    2.0000 	   37.0000 	   56.5517
    0.2976 	  120.4580 	    2.0000 	   37.0000 	   56.6307
    0.3586 	  120.6160 	    2.0000 	   37.0000 	   56.7097
    0.3433 	  120.7820 	    2.0000 	   37.0000 	   56.7927
    0.2976 	  120.9440 	    2.0000 	   37.0000 	   56.8737
    0.3586 	  121.1040 	    2.0000 	   37.0000 	   56.9537
    0.3891 	  121.2620 	    2.0000 	   37.0000 	   57.0327
    0.4044 	  121.4220 	    2.0000 	   37.0000 	   57.1127
    0.2670 	  121.5820 	    2.0000 	   37.0000 	   57.1927
    0.2213 	  121.7420 	    2.0000 	   37.0000 	   57.2728
    0.0839 	  121.9000 	    2.0000 	   37.0000 	   57.3518
    0.4196 	  122.0640 	    2.0000 	   37.0000 	   57.4338
    0.5570 	  122.2160 	    2.0000 	   37.0000 	   57.5098