File: instron/independence/direction/bad_l15w2/b_l15w2_65_30.txt
Thayer School of Engineering        Instron 4442 Mechanical Testing System
7/5/2018 9:58:57 PM

  Force (N)	Extension (mm)	Not Used	Not Used	Not Used	     Hour	    Minute	    Second
    0.7095 	    0.5135 	   21.0000 	   59.0000 	   15.9346
    0.5722 	    0.6150 	   21.0000 	   59.0000 	   16.1376
    0.6027 	    0.7235 	   21.0000 	   59.0000 	   16.3546
    0.6790 	    0.8150 	   21.0000 	   59.0000 	   16.5376
    0.6180 	    0.9070 	   21.0000 	   59.0000 	   16.7217
    0.4959 	    0.9855 	   21.0000 	   59.0000 	   16.8787
    0.7553 	    1.0675 	   21.0000 	   59.0000 	   17.0427
    0.6180 	    1.1595 	   21.0000 	   59.0000 	   17.2267
    0.6790 	    1.2570 	   21.0000 	   59.0000 	   17.4217
    0.6180 	    1.3565 	   21.0000 	   59.0000 	   17.6207
    0.3433 	    1.4475 	   21.0000 	   59.0000 	   17.8027
    0.6485 	    1.5520 	   21.0000 	   59.0000 	   18.0117
    0.5722 	    1.6295 	   21.0000 	   59.0000 	   18.1667
    0.6790 	    1.7065 	   21.0000 	   59.0000 	   18.3208
    0.6638 	    1.7855 	   21.0000 	   59.0000 	   18.4788
    0.6485 	    1.8495 	   21.0000 	   59.0000 	   18.6068
    0.5264 	    1.9175 	   21.0000 	   59.0000 	   18.7428
    0.7401 	    1.9840 	   21.0000 	   59.0000 	   18.8758
    0.6790 	    2.0475 	   21.0000 	   59.0000 	   19.0028
    0.4654 	    2.1130 	   21.0000 	   59.0000 	   19.1338
    0.5570 	    2.1755 	   21.0000 	   59.0000 	   19.2588
    0.6638 	    2.2375 	   21.0000 	   59.0000 	   19.3828
    0.6180 	    2.3025 	   21.0000 	   59.0000 	   19.5128
    0.6485 	    2.3655 	   21.0000 	   59.0000 	   19.6388
    0.6790 	    2.4315 	   21.0000 	   59.0000 	   19.7708
    0.8011 	    2.4945 	   21.0000 	   59.0000 	   19.8968
    0.7858 	    2.5605 	   21.0000 	   59.0000 	   20.0278
    0.6485 	    2.6245 	   21.0000 	   59.0000 	   20.1569
    0.6485 	    2.6895 	   21.0000 	   59.0000 	   20.2869
    0.6180 	    2.7520 	   21.0000 	   59.0000 	   20.4119
    0.6485 	    2.8135 	   21.0000 	   59.0000 	   20.5349
    0.6180 	    2.8755 	   21.0000 	   59.0000 	   20.6589
    0.7095 	    2.9395 	   21.0000 	   59.0000 	   20.7869
    0.6638 	    3.0015 	   21.0000 	   59.0000 	   20.9109
    0.6790 	    3.0650 	   21.0000 	   59.0000 	   21.0379
    0.5417 	    3.1265 	   21.0000 	   59.0000 	   21.1609
    0.6790 	    3.1915 	   21.0000 	   59.0000 	   21.2909
    0.7553 	    3.2545 	   21.0000 	   59.0000 	   21.4169
    0.6180 	    3.3150 	   21.0000 	   59.0000 	   21.5379
    0.6790 	    3.3770 	   21.0000 	   59.0000 	   21.6619
    0.6790 	    3.4435 	   21.0000 	   59.0000 	   21.7949
    0.6332 	    3.5095 	   21.0000 	   59.0000 	   21.9270
    0.6332 	    3.5745 	   21.0000 	   59.0000 	   22.0570
    0.6485 	    3.6400 	   21.0000 	   59.0000 	   22.1880
    0.6180 	    3.7060 	   21.0000 	   59.0000 	   22.3200
    0.6332 	    3.7720 	   21.0000 	   59.0000 	   22.4520
    0.7553 	    3.8375 	   21.0000 	   59.0000 	   22.5820
    0.7248 	    3.9010 	   21.0000 	   59.0000 	   22.7090
    0.7095 	    3.9645 	   21.0000 	   59.0000 	   22.8360
    0.5112 	    4.0265 	   21.0000 	   59.0000 	   22.9600
    0.5875 	    4.0890 	   21.0000 	   59.0000 	   23.0850
    0.7095 	    4.1520 	   21.0000 	   59.0000 	   23.2110
    0.8774 	    4.2155 	   21.0000 	   59.0000 	   23.3380
    0.7095 	    4.2805 	   21.0000 	   59.0000 	   23.4680
    0.7858 	    4.3450 	   21.0000 	   59.0000 	   23.5971
    0.5875 	    4.4080 	   21.0000 	   59.0000 	   23.7231
    0.6638 	    4.4720 	   21.0000 	   59.0000 	   23.8511
    0.5112 	    4.5350 	   21.0000 	   59.0000 	   23.9771
    0.4807 	    4.5995 	   21.0000 	   59.0000 	   24.1061
    0.7248 	    4.6650 	   21.0000 	   59.0000 	   24.2371
    0.6180 	    4.7275 	   21.0000 	   59.0000 	   24.3621
    0.6638 	    4.7920 	   21.0000 	   59.0000 	   24.4911
    0.6790 	    4.8580 	   21.0000 	   59.0000 	   24.6231
    0.6638 	    4.9210 	   21.0000 	   59.0000 	   24.7491
    0.6180 	    4.9855 	   21.0000 	   59.0000 	   24.8781
    0.6485 	    5.0495 	   21.0000 	   59.0000 	   25.0061
    0.8011 	    5.1130 	   21.0000 	   59.0000 	   25.1331
    0.6332 	    5.1770 	   21.0000 	   59.0000 	   25.2611
    0.6180 	    5.2440 	   21.0000 	   59.0000 	   25.3952
    0.7858 	    5.3085 	   21.0000 	   59.0000 	   25.5242
    0.8316 	    5.3735 	   21.0000 	   59.0000 	   25.6542
    0.6027 	    5.4365 	   21.0000 	   59.0000 	   25.7802
    0.9079 	    5.5010 	   21.0000 	   59.0000 	   25.9092
    0.6790 	    5.5670 	   21.0000 	   59.0000 	   26.0412
    0.6943 	    5.6290 	   21.0000 	   59.0000 	   26.1652
    0.7401 	    5.6945 	   21.0000 	   59.0000 	   26.2962
    0.7095 	    5.7615 	   21.0000 	   59.0000 	   26.4302
    0.6485 	    5.8250 	   21.0000 	   59.0000 	   26.5572
    0.7401 	    5.8920 	   21.0000 	   59.0000 	   26.6912
    0.6485 	    5.9580 	   21.0000 	   59.0000 	   26.8232
    0.7553 	    6.0235 	   21.0000 	   59.0000 	   26.9542
    0.6943 	    6.0930 	   21.0000 	   59.0000 	   27.0933
    0.6180 	    6.1615 	   21.0000 	   59.0000 	   27.2303
    0.7095 	    6.2250 	   21.0000 	   59.0000 	   27.3573
    0.7706 	    6.2910 	   21.0000 	   59.0000 	   27.4893
    0.7553 	    6.3545 	   21.0000 	   59.0000 	   27.6163
    0.8316 	    6.4195 	   21.0000 	   59.0000 	   27.7463
    0.7401 	    6.4870 	   21.0000 	   59.0000 	   27.8813
    0.6180 	    6.5520 	   21.0000 	   59.0000 	   28.0113
    0.7858 	    6.6160 	   21.0000 	   59.0000 	   28.1393
    0.7706 	    6.6840 	   21.0000 	   59.0000 	   28.2753
    0.7706 	    6.7500 	   21.0000 	   59.0000 	   28.4073
    0.8011 	    6.8160 	   21.0000 	   59.0000 	   28.5393
    0.7248 	    6.8845 	   21.0000 	   59.0000 	   28.6763
    0.6332 	    6.9510 	   21.0000 	   59.0000 	   28.8094
    0.9232 	    7.0160 	   21.0000 	   59.0000 	   28.9394
    0.6943 	    7.0835 	   21.0000 	   59.0000 	   29.0744
    0.8469 	    7.1500 	   21.0000 	   59.0000 	   29.2074
    0.6638 	    7.2160 	   21.0000 	   59.0000 	   29.3394
    0.8621 	    7.2820 	   21.0000 	   59.0000 	   29.4714
    0.7553 	    7.3470 	   21.0000 	   59.0000 	   29.6014
    0.8011 	    7.4110 	   21.0000 	   59.0000 	   29.7294
    0.7095 	    7.4780 	   21.0000 	   59.0000 	   29.8634
    0.5112 	    7.5420 	   21.0000 	   59.0000 	   29.9914
    0.7095 	    7.6080 	   21.0000 	   59.0000 	   30.1234
    0.7553 	    7.6765 	   21.0000 	   59.0000 	   30.2604
    1.0147 	    7.7420 	   21.0000 	   59.0000 	   30.3914
    0.5417 	    7.8085 	   21.0000 	   59.0000 	   30.5244
    0.7553 	    7.8765 	   21.0000 	   59.0000 	   30.6605
    0.4654 	    7.9410 	   21.0000 	   59.0000 	   30.7895
    0.6180 	    8.0065 	   21.0000 	   59.0000 	   30.9205
    0.7095 	    8.0730 	   21.0000 	   59.0000 	   31.0535
    0.8774 	    8.1380 	   21.0000 	   59.0000 	   31.1835
    0.7401 	    8.2035 	   21.0000 	   59.0000 	   31.3145
    0.7858 	    8.2715 	   21.0000 	   59.0000 	   31.4505
    0.7401 	    8.3380 	   21.0000 	   59.0000 	   31.5835
    0.7401 	    8.4060 	   21.0000 	   59.0000 	   31.7195
    0.7706 	    8.4720 	   21.0000 	   59.0000 	   31.8515
    0.8316 	    8.5390 	   21.0000 	   59.0000 	   31.9855
    0.7553 	    8.6055 	   21.0000 	   59.0000 	   32.1185
    0.9079 	    8.6740 	   21.0000 	   59.0000 	   32.2555
    0.8164 	    8.7390 	   21.0000 	   59.0000 	   32.3856
    0.7858 	    8.8040 	   21.0000 	   59.0000 	   32.5156
    0.5722 	    8.8755 	   21.0000 	   59.0000 	   32.6586
    0.9842 	    8.9435 	   21.0000 	   59.0000 	   32.7946
    0.7401 	    9.0105 	   21.0000 	   59.0000 	   32.9286
    0.7401 	    9.0790 	   21.0000 	   59.0000 	   33.0656
    0.9232 	    9.1460 	   21.0000 	   59.0000 	   33.1996
    0.7858 	    9.2135 	   21.0000 	   59.0000 	   33.3346
    0.8316 	    9.2820 	   21.0000 	   59.0000 	   33.4716
    0.5570 	    9.3485 	   21.0000 	   59.0000 	   33.6046
    0.8011 	    9.4150 	   21.0000 	   59.0000 	   33.7376
    0.6485 	    9.4815 	   21.0000 	   59.0000 	   33.8706
    0.8011 	    9.5475 	   21.0000 	   59.0000 	   34.0026
    0.6790 	    9.6080 	   21.0000 	   59.0000 	   34.1237
    0.8164 	    9.6680 	   21.0000 	   59.0000 	   34.2437
    0.7401 	    9.7340 	   21.0000 	   59.0000 	   34.3757
    0.8621 	    9.8025 	   21.0000 	   59.0000 	   34.5127
    0.7401 	    9.8760 	   21.0000 	   59.0000 	   34.6597
    0.6332 	    9.9455 	   21.0000 	   59.0000 	   34.7987
    0.6943 	   10.0145 	   21.0000 	   59.0000 	   34.9367
    0.8164 	   10.0830 	   21.0000 	   59.0000 	   35.0737
    0.6027 	   10.1495 	   21.0000 	   59.0000 	   35.2067
    0.7248 	   10.2170 	   21.0000 	   59.0000 	   35.3417
    0.6638 	   10.2820 	   21.0000 	   59.0000 	   35.4717
    0.8316 	   10.3515 	   21.0000 	   59.0000 	   35.6107
    0.8774 	   10.4215 	   21.0000 	   59.0000 	   35.7507
    0.7858 	   10.4900 	   21.0000 	   59.0000 	   35.8878
    0.8621 	   10.5590 	   21.0000 	   59.0000 	   36.0248
    0.6485 	   10.6275 	   21.0000 	   59.0000 	   36.1628
    0.7858 	   10.7000 	   21.0000 	   59.0000 	   36.3078
    0.8011 	   10.7670 	   21.0000 	   59.0000 	   36.4418
    0.7553 	   10.8390 	   21.0000 	   59.0000 	   36.5858
    0.9232 	   10.9110 	   21.0000 	   59.0000 	   36.7298
    0.8164 	   10.9795 	   21.0000 	   59.0000 	   36.8668
    0.9842 	   11.0505 	   21.0000 	   59.0000 	   37.0088
    0.7553 	   11.1190 	   21.0000 	   59.0000 	   37.1458
    0.8011 	   11.1890 	   21.0000 	   59.0000 	   37.2858
    0.8469 	   11.2620 	   21.0000 	   59.0000 	   37.4318
    0.8774 	   11.3300 	   21.0000 	   59.0000 	   37.5679
    0.8011 	   11.3990 	   21.0000 	   59.0000 	   37.7059
    0.8164 	   11.4695 	   21.0000 	   59.0000 	   37.8469
    0.8621 	   11.5370 	   21.0000 	   59.0000 	   37.9819
    0.8927 	   11.6065 	   21.0000 	   59.0000 	   38.1209
    1.0910 	   11.6765 	   21.0000 	   59.0000 	   38.2609
    0.8469 	   11.7460 	   21.0000 	   59.0000 	   38.3999
    0.8316 	   11.8160 	   21.0000 	   59.0000 	   38.5399
    0.9537 	   11.8950 	   21.0000 	   59.0000 	   38.6979
    0.8164 	   11.9640 	   21.0000 	   59.0000 	   38.8359
    0.8316 	   12.0375 	   21.0000 	   59.0000 	   38.9829
    0.9232 	   12.1085 	   21.0000 	   59.0000 	   39.1249
    0.6332 	   12.1790 	   21.0000 	   59.0000 	   39.2659
    0.6943 	   12.2510 	   21.0000 	   59.0000 	   39.4100
    0.6638 	   12.3210 	   21.0000 	   59.0000 	   39.5500
    0.9079 	   12.3915 	   21.0000 	   59.0000 	   39.6910
    0.8316 	   12.4625 	   21.0000 	   59.0000 	   39.8330
    0.8774 	   12.5305 	   21.0000 	   59.0000 	   39.9690
    0.7706 	   12.6015 	   21.0000 	   59.0000 	   40.1100
    0.9232 	   12.6715 	   21.0000 	   59.0000 	   40.2500
    0.8011 	   12.7410 	   21.0000 	   59.0000 	   40.3890
    0.8621 	   12.8135 	   21.0000 	   59.0000 	   40.5340
    0.7553 	   12.8920 	   21.0000 	   59.0000 	   40.6910
    0.8164 	   12.9645 	   21.0000 	   59.0000 	   40.8360
    0.8621 	   13.0360 	   21.0000 	   59.0000 	   40.9790
    0.7095 	   13.0990 	   21.0000 	   59.0000 	   41.1051
    0.8621 	   13.1685 	   21.0000 	   59.0000 	   41.2441
    0.8011 	   13.2340 	   21.0000 	   59.0000 	   41.3751
    0.9384 	   13.2995 	   21.0000 	   59.0000 	   41.5061
    0.8316 	   13.3625 	   21.0000 	   59.0000 	   41.6321
    0.6790 	   13.4325 	   21.0000 	   59.0000 	   41.7721
    0.9384 	   13.5060 	   21.0000 	   59.0000 	   41.9191
    0.7706 	   13.5780 	   21.0000 	   59.0000 	   42.0631
    0.9842 	   13.6525 	   21.0000 	   59.0000 	   42.2121
    0.8774 	   13.7235 	   21.0000 	   59.0000 	   42.3541
    0.8011 	   13.7955 	   21.0000 	   59.0000 	   42.4981
    0.9079 	   13.8675 	   21.0000 	   59.0000 	   42.6421
    0.8011 	   13.9380 	   21.0000 	   59.0000 	   42.7831
    0.8621 	   14.0100 	   21.0000 	   59.0000 	   42.9272
    0.9079 	   14.0840 	   21.0000 	   59.0000 	   43.0752
    0.9079 	   14.1570 	   21.0000 	   59.0000 	   43.2212
    0.8164 	   14.2285 	   21.0000 	   59.0000 	   43.3642
    0.8469 	   14.3035 	   21.0000 	   59.0000 	   43.5142
    0.8621 	   14.3760 	   21.0000 	   59.0000 	   43.6592
    0.8774 	   14.4485 	   21.0000 	   59.0000 	   43.8042
    0.6180 	   14.5225 	   21.0000 	   59.0000 	   43.9522
    0.9384 	   14.5940 	   21.0000 	   59.0000 	   44.0952
    0.8011 	   14.6580 	   21.0000 	   59.0000 	   44.2232
    0.8621 	   14.7220 	   21.0000 	   59.0000 	   44.3512
    0.8621 	   14.7920 	   21.0000 	   59.0000 	   44.4912
    0.7858 	   14.8655 	   21.0000 	   59.0000 	   44.6383
    0.8927 	   14.9380 	   21.0000 	   59.0000 	   44.7833
    0.9232 	   15.0120 	   21.0000 	   59.0000 	   44.9313
    0.9232 	   15.0870 	   21.0000 	   59.0000 	   45.0813
    0.9537 	   15.1595 	   21.0000 	   59.0000 	   45.2263
    0.8774 	   15.2320 	   21.0000 	   59.0000 	   45.3713
    0.8927 	   15.3060 	   21.0000 	   59.0000 	   45.5193
    0.8927 	   15.3800 	   21.0000 	   59.0000 	   45.6673
    0.6027 	   15.4530 	   21.0000 	   59.0000 	   45.8133
    0.8316 	   15.5270 	   21.0000 	   59.0000 	   45.9613
    0.9537 	   15.6015 	   21.0000 	   59.0000 	   46.1093
    0.7706 	   15.6730 	   21.0000 	   59.0000 	   46.2533
    0.8164 	   15.7470 	   21.0000 	   59.0000 	   46.4014
    0.8621 	   15.8210 	   21.0000 	   59.0000 	   46.5494
    0.9842 	   15.8925 	   21.0000 	   59.0000 	   46.6924
    0.8927 	   15.9655 	   21.0000 	   59.0000 	   46.8384
    1.0452 	   16.0405 	   21.0000 	   59.0000 	   46.9884
    0.8164 	   16.1135 	   21.0000 	   59.0000 	   47.1344
    0.9842 	   16.1855 	   21.0000 	   59.0000 	   47.2784
    0.9689 	   16.2580 	   21.0000 	   59.0000 	   47.4234
    0.7706 	   16.3320 	   21.0000 	   59.0000 	   47.5714
    0.7858 	   16.4065 	   21.0000 	   59.0000 	   47.7204
    0.8927 	   16.4805 	   21.0000 	   59.0000 	   47.8684
    0.9079 	   16.5560 	   21.0000 	   59.0000 	   48.0195
    0.8621 	   16.6285 	   21.0000 	   59.0000 	   48.1645
    0.9689 	   16.7020 	   21.0000 	   59.0000 	   48.3115
    0.9232 	   16.7775 	   21.0000 	   59.0000 	   48.4625
    0.9384 	   16.8530 	   21.0000 	   59.0000 	   48.6135
    0.7858 	   16.9310 	   21.0000 	   59.0000 	   48.7695
    0.8927 	   17.0055 	   21.0000 	   59.0000 	   48.9185
    1.0147 	   17.0800 	   21.0000 	   59.0000 	   49.0675
    0.9079 	   17.1545 	   21.0000 	   59.0000 	   49.2165
    0.9537 	   17.2300 	   21.0000 	   59.0000 	   49.3675
    0.9537 	   17.3045 	   21.0000 	   59.0000 	   49.5165
    0.6180 	   17.3770 	   21.0000 	   59.0000 	   49.6615
    0.9384 	   17.4475 	   21.0000 	   59.0000 	   49.8026
    0.8621 	   17.5230 	   21.0000 	   59.0000 	   49.9536
    0.8774 	   17.5900 	   21.0000 	   59.0000 	   50.0876
    1.0147 	   17.6620 	   21.0000 	   59.0000 	   50.2316
    0.9232 	   17.7350 	   21.0000 	   59.0000 	   50.3776
    0.8927 	   17.8110 	   21.0000 	   59.0000 	   50.5296
    0.9384 	   17.8920 	   21.0000 	   59.0000 	   50.6916
    0.8774 	   17.9655 	   21.0000 	   59.0000 	   50.8386
    1.0300 	   18.0395 	   21.0000 	   59.0000 	   50.9866
    0.9384 	   18.1125 	   21.0000 	   59.0000 	   51.1326
    0.9079 	   18.1855 	   21.0000 	   59.0000 	   51.2786
    0.7401 	   18.2585 	   21.0000 	   59.0000 	   51.4246
    0.8774 	   18.3350 	   21.0000 	   59.0000 	   51.5777
    0.9537 	   18.4075 	   21.0000 	   59.0000 	   51.7227
    0.8621 	   18.4815 	   21.0000 	   59.0000 	   51.8707
    0.9842 	   18.5570 	   21.0000 	   59.0000 	   52.0217
    0.9232 	   18.6315 	   21.0000 	   59.0000 	   52.1707
    0.6332 	   18.7065 	   21.0000 	   59.0000 	   52.3207
    0.8927 	   18.7800 	   21.0000 	   59.0000 	   52.4677
    0.9232 	   18.8550 	   21.0000 	   59.0000 	   52.6177
    0.8927 	   18.9320 	   21.0000 	   59.0000 	   52.7717
    0.9232 	   19.0085 	   21.0000 	   59.0000 	   52.9247
    0.9384 	   19.0840 	   21.0000 	   59.0000 	   53.0757
    0.8927 	   19.1570 	   21.0000 	   59.0000 	   53.2217
    0.7858 	   19.2310 	   21.0000 	   59.0000 	   53.3698
    1.0147 	   19.3060 	   21.0000 	   59.0000 	   53.5198
    0.9689 	   19.3800 	   21.0000 	   59.0000 	   53.6678
    0.9537 	   19.4555 	   21.0000 	   59.0000 	   53.8188
    1.0452 	   19.5335 	   21.0000 	   59.0000 	   53.9748
    1.0758 	   19.6100 	   21.0000 	   59.0000 	   54.1278
    0.8774 	   19.6855 	   21.0000 	   59.0000 	   54.2788
    1.0452 	   19.7620 	   21.0000 	   59.0000 	   54.4318
    0.9232 	   19.8360 	   21.0000 	   59.0000 	   54.5798
    0.9384 	   19.9130 	   21.0000 	   59.0000 	   54.7338
    1.0452 	   19.9875 	   21.0000 	   59.0000 	   54.8828
    0.9537 	   20.0635 	   21.0000 	   59.0000 	   55.0349
    0.9232 	   20.1380 	   21.0000 	   59.0000 	   55.1839
    0.9232 	   20.2140 	   21.0000 	   59.0000 	   55.3359
    1.0300 	   20.2895 	   21.0000 	   59.0000 	   55.4869
    1.0605 	   20.3625 	   21.0000 	   59.0000 	   55.6329
    1.0147 	   20.4385 	   21.0000 	   59.0000 	   55.7849
    0.9995 	   20.5120 	   21.0000 	   59.0000 	   55.9319
    0.9842 	   20.5810 	   21.0000 	   59.0000 	   56.0699
    1.0300 	   20.6485 	   21.0000 	   59.0000 	   56.2049
    0.9995 	   20.7195 	   21.0000 	   59.0000 	   56.3469
    0.7553 	   20.7940 	   21.0000 	   59.0000 	   56.4959
    0.9384 	   20.8680 	   21.0000 	   59.0000 	   56.6439
    0.7706 	   20.9445 	   21.0000 	   59.0000 	   56.7970
    0.9079 	   21.0200 	   21.0000 	   59.0000 	   56.9480
    0.9537 	   21.0955 	   21.0000 	   59.0000 	   57.0990
    0.9232 	   21.1715 	   21.0000 	   59.0000 	   57.2510
    1.1215 	   21.2480 	   21.0000 	   59.0000 	   57.4040
    0.9995 	   21.3250 	   21.0000 	   59.0000 	   57.5570
    0.9384 	   21.4005 	   21.0000 	   59.0000 	   57.7080
    1.0452 	   21.4770 	   21.0000 	   59.0000 	   57.8610
    0.9842 	   21.5555 	   21.0000 	   59.0000 	   58.0180
    1.0147 	   21.6305 	   21.0000 	   59.0000 	   58.1680
    1.0605 	   21.7095 	   21.0000 	   59.0000 	   58.3260
    0.9995 	   21.7865 	   21.0000 	   59.0000 	   58.4800
    1.0147 	   21.8555 	   21.0000 	   59.0000 	   58.6181
    0.9995 	   21.9285 	   21.0000 	   59.0000 	   58.7641
    0.9384 	   21.9990 	   21.0000 	   59.0000 	   58.9051
    0.9079 	   22.0700 	   21.0000 	   59.0000 	   59.0471
    1.1215 	   22.1390 	   21.0000 	   59.0000 	   59.1851
    1.0300 	   22.2130 	   21.0000 	   59.0000 	   59.3331
    1.0605 	   22.2830 	   21.0000 	   59.0000 	   59.4731
    1.1673 	   22.3560 	   21.0000 	   59.0000 	   59.6191
    0.9079 	   22.4335 	   21.0000 	   59.0000 	   59.7741
    0.9995 	   22.5110 	   21.0000 	   59.0000 	   59.9291
    1.0605 	   22.5860 	   22.0000 	    0.0000 	    0.0791
    1.0605 	   22.6870 	   22.0000 	    0.0000 	    0.2812
    1.0605 	   22.7570 	   22.0000 	    0.0000 	    0.4212
    1.1978 	   22.8290 	   22.0000 	    0.0000 	    0.5652
    1.1521 	   22.9085 	   22.0000 	    0.0000 	    0.7242
    0.7858 	   22.9875 	   22.0000 	    0.0000 	    0.8822
    1.1673 	   23.0675 	   22.0000 	    0.0000 	    1.0422
    1.0452 	   23.1450 	   22.0000 	    0.0000 	    1.1972
    0.9079 	   23.2215 	   22.0000 	    0.0000 	    1.3502
    0.9689 	   23.2925 	   22.0000 	    0.0000 	    1.4922
    0.8774 	   23.3605 	   22.0000 	    0.0000 	    1.6282
    1.0147 	   23.4335 	   22.0000 	    0.0000 	    1.7742
    1.0147 	   23.5110 	   22.0000 	    0.0000 	    1.9292
    1.1368 	   23.5900 	   22.0000 	    0.0000 	    2.0873
    1.0300 	   23.6675 	   22.0000 	    0.0000 	    2.2423
    1.1063 	   23.7470 	   22.0000 	    0.0000 	    2.4013
    1.1826 	   23.8255 	   22.0000 	    0.0000 	    2.5583
    1.1673 	   23.9030 	   22.0000 	    0.0000 	    2.7133
    1.0452 	   23.9815 	   22.0000 	    0.0000 	    2.8703
    1.0452 	   24.0610 	   22.0000 	    0.0000 	    3.0293
    0.9537 	   24.1360 	   22.0000 	    0.0000 	    3.1793
    0.7858 	   24.2130 	   22.0000 	    0.0000 	    3.3333
    1.1368 	   24.2845 	   22.0000 	    0.0000 	    3.4763
    1.1063 	   24.3530 	   22.0000 	    0.0000 	    3.6133
    1.0758 	   24.4215 	   22.0000 	    0.0000 	    3.7503
    1.0605 	   24.4895 	   22.0000 	    0.0000 	    3.8864
    0.9995 	   24.5595 	   22.0000 	    0.0000 	    4.0264
    1.1521 	   24.6275 	   22.0000 	    0.0000 	    4.1624
    0.9537 	   24.7040 	   22.0000 	    0.0000 	    4.3154
    1.1521 	   24.7750 	   22.0000 	    0.0000 	    4.4574
    1.1063 	   24.8440 	   22.0000 	    0.0000 	    4.5954
    1.1368 	   24.9120 	   22.0000 	    0.0000 	    4.7314
    1.1368 	   24.9810 	   22.0000 	    0.0000 	    4.8694
    1.1368 	   25.0515 	   22.0000 	    0.0000 	    5.0104
    0.9995 	   25.1205 	   22.0000 	    0.0000 	    5.1484
    1.2131 	   25.1950 	   22.0000 	    0.0000 	    5.2974
    1.1978 	   25.2735 	   22.0000 	    0.0000 	    5.4544
    1.2284 	   25.3520 	   22.0000 	    0.0000 	    5.6115
    1.1368 	   25.4295 	   22.0000 	    0.0000 	    5.7665
    1.1215 	   25.5070 	   22.0000 	    0.0000 	    5.9215
    1.2741 	   25.5865 	   22.0000 	    0.0000 	    6.0805
    1.0452 	   25.6555 	   22.0000 	    0.0000 	    6.2185
    1.2436 	   25.7285 	   22.0000 	    0.0000 	    6.3645
    1.1215 	   25.8040 	   22.0000 	    0.0000 	    6.5155
    0.9995 	   25.8830 	   22.0000 	    0.0000 	    6.6735
    1.0452 	   25.9610 	   22.0000 	    0.0000 	    6.8295
    1.1368 	   26.0390 	   22.0000 	    0.0000 	    6.9855
    1.0605 	   26.1135 	   22.0000 	    0.0000 	    7.1345
    1.1215 	   26.1825 	   22.0000 	    0.0000 	    7.2726
    1.1368 	   26.2525 	   22.0000 	    0.0000 	    7.4126
    1.1826 	   26.3225 	   22.0000 	    0.0000 	    7.5526
    1.1215 	   26.3935 	   22.0000 	    0.0000 	    7.6946
    1.2589 	   26.4630 	   22.0000 	    0.0000 	    7.8336
    0.9842 	   26.5325 	   22.0000 	    0.0000 	    7.9726
    1.0910 	   26.6055 	   22.0000 	    0.0000 	    8.1186
    1.1673 	   26.6800 	   22.0000 	    0.0000 	    8.2676
    1.1826 	   26.7545 	   22.0000 	    0.0000 	    8.4166
    1.1063 	   26.8250 	   22.0000 	    0.0000 	    8.5576
    1.1521 	   26.9030 	   22.0000 	    0.0000 	    8.7136
    1.1673 	   26.9800 	   22.0000 	    0.0000 	    8.8676
    1.1063 	   27.0610 	   22.0000 	    0.0000 	    9.0297
    1.1826 	   27.1385 	   22.0000 	    0.0000 	    9.1847
    1.2284 	   27.2175 	   22.0000 	    0.0000 	    9.3427
    1.1826 	   27.2980 	   22.0000 	    0.0000 	    9.5037
    1.3657 	   27.3785 	   22.0000 	    0.0000 	    9.6647
    1.0910 	   27.4580 	   22.0000 	    0.0000 	    9.8237
    1.1978 	   27.5365 	   22.0000 	    0.0000 	    9.9807
    1.2894 	   27.6165 	   22.0000 	    0.0000 	   10.1407
    1.1063 	   27.6970 	   22.0000 	    0.0000 	   10.3017
    1.1063 	   27.7780 	   22.0000 	    0.0000 	   10.4637
    1.1063 	   27.8560 	   22.0000 	    0.0000 	   10.6197
    1.2284 	   27.9350 	   22.0000 	    0.0000 	   10.7778
    1.1521 	   28.0145 	   22.0000 	    0.0000 	   10.9368
    1.3504 	   28.0965 	   22.0000 	    0.0000 	   11.1008
    1.2284 	   28.1760 	   22.0000 	    0.0000 	   11.2598
    1.2131 	   28.2535 	   22.0000 	    0.0000 	   11.4148
    1.4115 	   28.3235 	   22.0000 	    0.0000 	   11.5548
    1.2741 	   28.3950 	   22.0000 	    0.0000 	   11.6978
    1.2589 	   28.4650 	   22.0000 	    0.0000 	   11.8378
    1.2741 	   28.5405 	   22.0000 	    0.0000 	   11.9888
    1.1063 	   28.6105 	   22.0000 	    0.0000 	   12.1288
    1.2589 	   28.6845 	   22.0000 	    0.0000 	   12.2768
    1.2131 	   28.7605 	   22.0000 	    0.0000 	   12.4288
    1.1215 	   28.8320 	   22.0000 	    0.0000 	   12.5719
    1.3352 	   28.9170 	   22.0000 	    0.0000 	   12.7419
    1.1673 	   28.9965 	   22.0000 	    0.0000 	   12.9009
    1.2436 	   29.0710 	   22.0000 	    0.0000 	   13.0499
    1.1521 	   29.1415 	   22.0000 	    0.0000 	   13.1909
    1.1978 	   29.2125 	   22.0000 	    0.0000 	   13.3329
    1.2284 	   29.2825 	   22.0000 	    0.0000 	   13.4729
    1.3504 	   29.3625 	   22.0000 	    0.0000 	   13.6329
    1.1368 	   29.4415 	   22.0000 	    0.0000 	   13.7909
    1.2741 	   29.5170 	   22.0000 	    0.0000 	   13.9419
    1.2131 	   29.5880 	   22.0000 	    0.0000 	   14.0839
    1.2436 	   29.6630 	   22.0000 	    0.0000 	   14.2339
    1.4267 	   29.7430 	   22.0000 	    0.0000 	   14.3940
    1.2284 	   29.8240 	   22.0000 	    0.0000 	   14.5560
    1.3046 	   29.9015 	   22.0000 	    0.0000 	   14.7110
    1.3352 	   29.9795 	   22.0000 	    0.0000 	   14.8670
    1.1978 	   30.0545 	   22.0000 	    0.0000 	   15.0170
    1.2436 	   30.1265 	   22.0000 	    0.0000 	   15.1600
    1.3352 	   30.2020 	   22.0000 	    0.0000 	   15.3110
    1.2436 	   30.2825 	   22.0000 	    0.0000 	   15.4720
    1.3504 	   30.3625 	   22.0000 	    0.0000 	   15.6320
    1.2436 	   30.4430 	   22.0000 	    0.0000 	   15.7930
    1.3504 	   30.5235 	   22.0000 	    0.0000 	   15.9540
    1.1673 	   30.6040 	   22.0000 	    0.0000 	   16.1151
    1.3199 	   30.6830 	   22.0000 	    0.0000 	   16.2731
    1.3809 	   30.7575 	   22.0000 	    0.0000 	   16.4221
    1.3352 	   30.8340 	   22.0000 	    0.0000 	   16.5751
    1.2436 	   30.9170 	   22.0000 	    0.0000 	   16.7411
    1.3962 	   30.9975 	   22.0000 	    0.0000 	   16.9021
    1.0758 	   31.0805 	   22.0000 	    0.0000 	   17.0681
    1.3199 	   31.1595 	   22.0000 	    0.0000 	   17.2261
    1.3962 	   31.2360 	   22.0000 	    0.0000 	   17.3791
    1.4115 	   31.3155 	   22.0000 	    0.0000 	   17.5381
    1.3046 	   31.3970 	   22.0000 	    0.0000 	   17.7011
    1.3199 	   31.4770 	   22.0000 	    0.0000 	   17.8612
    1.2741 	   31.5575 	   22.0000 	    0.0000 	   18.0222
    1.3504 	   31.6380 	   22.0000 	    0.0000 	   18.1832
    1.3046 	   31.7105 	   22.0000 	    0.0000 	   18.3282
    1.2894 	   31.7855 	   22.0000 	    0.0000 	   18.4782
    1.3504 	   31.8570 	   22.0000 	    0.0000 	   18.6212
    1.2741 	   31.9335 	   22.0000 	    0.0000 	   18.7742
    1.3199 	   32.0145 	   22.0000 	    0.0000 	   18.9362
    1.3657 	   32.0965 	   22.0000 	    0.0000 	   19.1002
    1.4267 	   32.1725 	   22.0000 	    0.0000 	   19.2522
    1.2894 	   32.2510 	   22.0000 	    0.0000 	   19.4092
    1.2894 	   32.3315 	   22.0000 	    0.0000 	   19.5703
    1.4725 	   32.4120 	   22.0000 	    0.0000 	   19.7313
    1.5488 	   32.4925 	   22.0000 	    0.0000 	   19.8923
    1.3962 	   32.5695 	   22.0000 	    0.0000 	   20.0463
    1.2894 	   32.6420 	   22.0000 	    0.0000 	   20.1913
    1.4267 	   32.7165 	   22.0000 	    0.0000 	   20.3403
    1.3046 	   32.7890 	   22.0000 	    0.0000 	   20.4853
    1.3504 	   32.8610 	   22.0000 	    0.0000 	   20.6293
    1.3657 	   32.9415 	   22.0000 	    0.0000 	   20.7903
    1.3809 	   33.0150 	   22.0000 	    0.0000 	   20.9373
    1.4267 	   33.0880 	   22.0000 	    0.0000 	   21.0833
    1.4420 	   33.1605 	   22.0000 	    0.0000 	   21.2283
    1.4115 	   33.2330 	   22.0000 	    0.0000 	   21.3734
    1.5030 	   33.3110 	   22.0000 	    0.0000 	   21.5294
    1.3657 	   33.3925 	   22.0000 	    0.0000 	   21.6924
    1.4420 	   33.4670 	   22.0000 	    0.0000 	   21.8414
    1.3352 	   33.5385 	   22.0000 	    0.0000 	   21.9844
    1.4267 	   33.6130 	   22.0000 	    0.0000 	   22.1334
    1.5640 	   33.6905 	   22.0000 	    0.0000 	   22.2884
    1.4725 	   33.7700 	   22.0000 	    0.0000 	   22.4474
    1.3809 	   33.8500 	   22.0000 	    0.0000 	   22.6074
    1.4115 	   33.9390 	   22.0000 	    0.0000 	   22.7854
    1.3657 	   34.0210 	   22.0000 	    0.0000 	   22.9494
    1.3352 	   34.1045 	   22.0000 	    0.0000 	   23.1165
    1.5335 	   34.1875 	   22.0000 	    0.0000 	   23.2825
    1.4572 	   34.2700 	   22.0000 	    0.0000 	   23.4475
    1.1673 	   34.3510 	   22.0000 	    0.0000 	   23.6095
    1.4267 	   34.4330 	   22.0000 	    0.0000 	   23.7735
    1.3199 	   34.5150 	   22.0000 	    0.0000 	   23.9375
    1.4420 	   34.5960 	   22.0000 	    0.0000 	   24.0995
    1.5335 	   34.6800 	   22.0000 	    0.0000 	   24.2675
    1.5946 	   34.7625 	   22.0000 	    0.0000 	   24.4325
    1.1978 	   34.8435 	   22.0000 	    0.0000 	   24.5945
    1.3809 	   34.9255 	   22.0000 	    0.0000 	   24.7586
    1.4267 	   35.0090 	   22.0000 	    0.0000 	   24.9256
    1.3657 	   35.0920 	   22.0000 	    0.0000 	   25.0916
    1.5946 	   35.1735 	   22.0000 	    0.0000 	   25.2546
    1.5183 	   35.2550 	   22.0000 	    0.0000 	   25.4176
    1.5488 	   35.3355 	   22.0000 	    0.0000 	   25.5786
    1.5488 	   35.4175 	   22.0000 	    0.0000 	   25.7426
    1.3657 	   35.4970 	   22.0000 	    0.0000 	   25.9016
    1.5793 	   35.5695 	   22.0000 	    0.0000 	   26.0466
    1.5946 	   35.6500 	   22.0000 	    0.0000 	   26.2076
    1.5946 	   35.7320 	   22.0000 	    0.0000 	   26.3716
    1.5335 	   35.8145 	   22.0000 	    0.0000 	   26.5367
    1.5488 	   35.8965 	   22.0000 	    0.0000 	   26.7007
    1.6861 	   35.9770 	   22.0000 	    0.0000 	   26.8617
    1.5793 	   36.0605 	   22.0000 	    0.0000 	   27.0287
    1.5946 	   36.1435 	   22.0000 	    0.0000 	   27.1947
    1.5488 	   36.2265 	   22.0000 	    0.0000 	   27.3607
    1.5640 	   36.3090 	   22.0000 	    0.0000 	   27.5257
    1.3504 	   36.3905 	   22.0000 	    0.0000 	   27.6887
    1.5030 	   36.4670 	   22.0000 	    0.0000 	   27.8417
    1.5183 	   36.5480 	   22.0000 	    0.0000 	   28.0037
    1.7624 	   36.6290 	   22.0000 	    0.0000 	   28.1657
    1.5946 	   36.7100 	   22.0000 	    0.0000 	   28.3278
    1.5640 	   36.7920 	   22.0000 	    0.0000 	   28.4918
    1.4878 	   36.8735 	   22.0000 	    0.0000 	   28.6548
    1.6403 	   36.9495 	   22.0000 	    0.0000 	   28.8068
    1.5488 	   37.0230 	   22.0000 	    0.0000 	   28.9538
    1.4725 	   37.0985 	   22.0000 	    0.0000 	   29.1048
    1.6403 	   37.1735 	   22.0000 	    0.0000 	   29.2548
    1.5640 	   37.2470 	   22.0000 	    0.0000 	   29.4018
    1.6251 	   37.3205 	   22.0000 	    0.0000 	   29.5488
    1.6098 	   37.3970 	   22.0000 	    0.0000 	   29.7018
    1.5488 	   37.4770 	   22.0000 	    0.0000 	   29.8618
    1.3809 	   37.5540 	   22.0000 	    0.0000 	   30.0159
    1.4267 	   37.6325 	   22.0000 	    0.0000 	   30.1729
    1.6861 	   37.7065 	   22.0000 	    0.0000 	   30.3209
    1.5030 	   37.7800 	   22.0000 	    0.0000 	   30.4679
    1.6403 	   37.8565 	   22.0000 	    0.0000 	   30.6209
    1.7166 	   37.9325 	   22.0000 	    0.0000 	   30.7729
    1.5640 	   38.0165 	   22.0000 	    0.0000 	   30.9409
    1.6709 	   38.1010 	   22.0000 	    0.0000 	   31.1099
    1.7319 	   38.1825 	   22.0000 	    0.0000 	   31.2729
    1.6098 	   38.2655 	   22.0000 	    0.0000 	   31.4389
    1.6403 	   38.3485 	   22.0000 	    0.0000 	   31.6049
    1.6709 	   38.4325 	   22.0000 	    0.0000 	   31.7730
    1.6709 	   38.5155 	   22.0000 	    0.0000 	   31.9390
    1.7777 	   38.5985 	   22.0000 	    0.0000 	   32.1050
    1.6556 	   38.6825 	   22.0000 	    0.0000 	   32.2730
    1.8082 	   38.7655 	   22.0000 	    0.0000 	   32.4390
    1.6403 	   38.8495 	   22.0000 	    0.0000 	   32.6060
    1.5640 	   38.9380 	   22.0000 	    0.0000 	   32.7830
    1.6709 	   39.0220 	   22.0000 	    0.0000 	   32.9510
    1.7319 	   39.0990 	   22.0000 	    0.0000 	   33.1050
    1.7777 	   39.1735 	   22.0000 	    0.0000 	   33.2540
    1.7472 	   39.2495 	   22.0000 	    0.0000 	   33.4060
    1.7624 	   39.3315 	   22.0000 	    0.0000 	   33.5701
    1.8082 	   39.4110 	   22.0000 	    0.0000 	   33.7291
    1.8387 	   39.4865 	   22.0000 	    0.0000 	   33.8801
    1.7319 	   39.5610 	   22.0000 	    0.0000 	   34.0291
    1.7014 	   39.6360 	   22.0000 	    0.0000 	   34.1791
    1.8387 	   39.7105 	   22.0000 	    0.0000 	   34.3281
    1.6556 	   39.7855 	   22.0000 	    0.0000 	   34.4781
    1.7319 	   39.8610 	   22.0000 	    0.0000 	   34.6291
    1.8997 	   39.9465 	   22.0000 	    0.0000 	   34.8001
    1.7624 	   40.0305 	   22.0000 	    0.0000 	   34.9681
    1.7166 	   40.1080 	   22.0000 	    0.0000 	   35.1231
    1.8387 	   40.1905 	   22.0000 	    0.0000 	   35.2882
    2.0371 	   40.2710 	   22.0000 	    0.0000 	   35.4492
    1.7929 	   40.3495 	   22.0000 	    0.0000 	   35.6062
    1.7929 	   40.4315 	   22.0000 	    0.0000 	   35.7702
    1.8082 	   40.5130 	   22.0000 	    0.0000 	   35.9332
    1.8235 	   40.5880 	   22.0000 	    0.0000 	   36.0832
    1.7319 	   40.6660 	   22.0000 	    0.0000 	   36.2392
    1.8082 	   40.7420 	   22.0000 	    0.0000 	   36.3912
    1.8387 	   40.8235 	   22.0000 	    0.0000 	   36.5542
    1.7166 	   40.9005 	   22.0000 	    0.0000 	   36.7082
    1.8235 	   40.9750 	   22.0000 	    0.0000 	   36.8572
    1.7166 	   41.0510 	   22.0000 	    0.0000 	   37.0093
    1.7777 	   41.1270 	   22.0000 	    0.0000 	   37.1613
    1.8235 	   41.2105 	   22.0000 	    0.0000 	   37.3283
    1.8692 	   41.2935 	   22.0000 	    0.0000 	   37.4943
    1.9913 	   41.3760 	   22.0000 	    0.0000 	   37.6593
    1.8692 	   41.4590 	   22.0000 	    0.0000 	   37.8253
    1.9608 	   41.5425 	   22.0000 	    0.0000 	   37.9923
    1.8082 	   41.6260 	   22.0000 	    0.0000 	   38.1593
    1.9608 	   41.7090 	   22.0000 	    0.0000 	   38.3253
    1.7777 	   41.7850 	   22.0000 	    0.0000 	   38.4773
    1.9760 	   41.8755 	   22.0000 	    0.0000 	   38.6583
    1.9608 	   41.9595 	   22.0000 	    0.0000 	   38.8264
    1.6098 	   42.0440 	   22.0000 	    0.0000 	   38.9954
    1.9303 	   42.1275 	   22.0000 	    0.0000 	   39.1624
    2.0523 	   42.2110 	   22.0000 	    0.0000 	   39.3294
    1.8082 	   42.2960 	   22.0000 	    0.0000 	   39.4994
    1.9608 	   42.3815 	   22.0000 	    0.0000 	   39.6704
    1.8845 	   42.4645 	   22.0000 	    0.0000 	   39.8364
    1.9913 	   42.5510 	   22.0000 	    0.0000 	   40.0094
    1.8997 	   42.6280 	   22.0000 	    0.0000 	   40.1634
    2.0981 	   42.7050 	   22.0000 	    0.0000 	   40.3174
    1.9150 	   42.7845 	   22.0000 	    0.0000 	   40.4764
    1.9455 	   42.8670 	   22.0000 	    0.0000 	   40.6415
    1.8692 	   42.9515 	   22.0000 	    0.0000 	   40.8105
    1.8997 	   43.0365 	   22.0000 	    0.0000 	   40.9805
    1.9913 	   43.1245 	   22.0000 	    0.0000 	   41.1565
    2.0829 	   43.2070 	   22.0000 	    0.0000 	   41.3215
    1.9913 	   43.2880 	   22.0000 	    0.0000 	   41.4835
    1.9608 	   43.3645 	   22.0000 	    0.0000 	   41.6365
    2.0066 	   43.4475 	   22.0000 	    0.0000 	   41.8025
    2.0523 	   43.5225 	   22.0000 	    0.0000 	   41.9525
    2.1134 	   43.5985 	   22.0000 	    0.0000 	   42.1045
    2.1592 	   43.6755 	   22.0000 	    0.0000 	   42.2586
    1.9608 	   43.7530 	   22.0000 	    0.0000 	   42.4136
    2.0676 	   43.8315 	   22.0000 	    0.0000 	   42.5706
    2.0523 	   43.9165 	   22.0000 	    0.0000 	   42.7406
    2.0981 	   44.0020 	   22.0000 	    0.0000 	   42.9116
    2.0676 	   44.0845 	   22.0000 	    0.0000 	   43.0766
    2.0676 	   44.1600 	   22.0000 	    0.0000 	   43.2276
    2.0829 	   44.2360 	   22.0000 	    0.0000 	   43.3796
    1.9913 	   44.3130 	   22.0000 	    0.0000 	   43.5336
    2.1286 	   44.3910 	   22.0000 	    0.0000 	   43.6896
    2.1134 	   44.4665 	   22.0000 	    0.0000 	   43.8406
    2.0066 	   44.5455 	   22.0000 	    0.0000 	   43.9986
    2.0066 	   44.6285 	   22.0000 	    0.0000 	   44.1647
    2.1439 	   44.7040 	   22.0000 	    0.0000 	   44.3157
    2.0676 	   44.7800 	   22.0000 	    0.0000 	   44.4677
    2.1897 	   44.8620 	   22.0000 	    0.0000 	   44.6317
    2.1439 	   44.9470 	   22.0000 	    0.0000 	   44.8017
    2.2354 	   45.0305 	   22.0000 	    0.0000 	   44.9687
    2.1744 	   45.1115 	   22.0000 	    0.0000 	   45.1307
    2.2049 	   45.1915 	   22.0000 	    0.0000 	   45.2907
    2.1744 	   45.2765 	   22.0000 	    0.0000 	   45.4607
    2.2812 	   45.3555 	   22.0000 	    0.0000 	   45.6187
    1.9913 	   45.4320 	   22.0000 	    0.0000 	   45.7718
    2.1439 	   45.5080 	   22.0000 	    0.0000 	   45.9238
    2.2965 	   45.5845 	   22.0000 	    0.0000 	   46.0768
    2.1286 	   45.6655 	   22.0000 	    0.0000 	   46.2388
    2.3117 	   45.7485 	   22.0000 	    0.0000 	   46.4048
    2.1134 	   45.8325 	   22.0000 	    0.0000 	   46.5728
    2.2660 	   45.9150 	   22.0000 	    0.0000 	   46.7378
    2.2202 	   45.9985 	   22.0000 	    0.0000 	   46.9048
    2.1286 	   46.0810 	   22.0000 	    0.0000 	   47.0698
    2.3575 	   46.1590 	   22.0000 	    0.0000 	   47.2258
    2.1744 	   46.2395 	   22.0000 	    0.0000 	   47.3868
    2.2965 	   46.3230 	   22.0000 	    0.0000 	   47.5539
    2.1592 	   46.4080 	   22.0000 	    0.0000 	   47.7239
    2.2202 	   46.4855 	   22.0000 	    0.0000 	   47.8789
    2.2965 	   46.5615 	   22.0000 	    0.0000 	   48.0309
    2.2507 	   46.6385 	   22.0000 	    0.0000 	   48.1849
    2.3117 	   46.7155 	   22.0000 	    0.0000 	   48.3389
    2.2812 	   46.7910 	   22.0000 	    0.0000 	   48.4899
    2.3880 	   46.8690 	   22.0000 	    0.0000 	   48.6459
    2.1439 	   46.9555 	   22.0000 	    0.0000 	   48.8189
    2.3423 	   47.0400 	   22.0000 	    0.0000 	   48.9879
    2.3575 	   47.1180 	   22.0000 	    0.0000 	   49.1439
    2.3880 	   47.1940 	   22.0000 	    0.0000 	   49.2960
    2.1897 	   47.2740 	   22.0000 	    0.0000 	   49.4560
    2.4033 	   47.3500 	   22.0000 	    0.0000 	   49.6080
    2.3728 	   47.4355 	   22.0000 	    0.0000 	   49.7790
    2.2660 	   47.5200 	   22.0000 	    0.0000 	   49.9480
    2.2965 	   47.6035 	   22.0000 	    0.0000 	   50.1140
    2.3880 	   47.6880 	   22.0000 	    0.0000 	   50.2830
    2.3575 	   47.7735 	   22.0000 	    0.0000 	   50.4540
    2.2812 	   47.8560 	   22.0000 	    0.0000 	   50.6190
    2.4033 	   47.9435 	   22.0000 	    0.0000 	   50.7940
    2.3270 	   48.0315 	   22.0000 	    0.0000 	   50.9701
    2.4033 	   48.1165 	   22.0000 	    0.0000 	   51.1401
    2.4491 	   48.1945 	   22.0000 	    0.0000 	   51.2961
    2.4643 	   48.2735 	   22.0000 	    0.0000 	   51.4541
    2.4643 	   48.3505 	   22.0000 	    0.0000 	   51.6081
    2.3575 	   48.4340 	   22.0000 	    0.0000 	   51.7751
    2.3270 	   48.5190 	   22.0000 	    0.0000 	   51.9451
    2.6322 	   48.6030 	   22.0000 	    0.0000 	   52.1131
    2.4948 	   48.6835 	   22.0000 	    0.0000 	   52.2741
    2.4033 	   48.7605 	   22.0000 	    0.0000 	   52.4281
    2.2660 	   48.8460 	   22.0000 	    0.0000 	   52.5991
    2.6627 	   48.9315 	   22.0000 	    0.0000 	   52.7702
    2.4948 	   49.0175 	   22.0000 	    0.0000 	   52.9422
    2.4033 	   49.1040 	   22.0000 	    0.0000 	   53.1152
    2.4186 	   49.1910 	   22.0000 	    0.0000 	   53.2892
    2.5101 	   49.2760 	   22.0000 	    0.0000 	   53.4592
    2.4948 	   49.3565 	   22.0000 	    0.0000 	   53.6202
    2.3880 	   49.4385 	   22.0000 	    0.0000 	   53.7842
    2.5559 	   49.5245 	   22.0000 	    0.0000 	   53.9562
    2.4948 	   49.6015 	   22.0000 	    0.0000 	   54.1102
    2.4338 	   49.6785 	   22.0000 	    0.0000 	   54.2642
    2.5254 	   49.7580 	   22.0000 	    0.0000 	   54.4232
    2.4491 	   49.8435 	   22.0000 	    0.0000 	   54.5943
    2.5406 	   49.9295 	   22.0000 	    0.0000 	   54.7663
    2.5711 	   50.0145 	   22.0000 	    0.0000 	   54.9363
    2.6169 	   50.1000 	   22.0000 	    0.0000 	   55.1073
    2.6780 	   50.1820 	   22.0000 	    0.0000 	   55.2713
    2.6322 	   50.2605 	   22.0000 	    0.0000 	   55.4283
    2.5711 	   50.3495 	   22.0000 	    0.0000 	   55.6063
    2.6017 	   50.4355 	   22.0000 	    0.0000 	   55.7783
    2.6322 	   50.5220 	   22.0000 	    0.0000 	   55.9513
    2.6627 	   50.6080 	   22.0000 	    0.0000 	   56.1233
    2.5559 	   50.6940 	   22.0000 	    0.0000 	   56.2954
    2.6017 	   50.7780 	   22.0000 	    0.0000 	   56.4634
    2.3117 	   50.8610 	   22.0000 	    0.0000 	   56.6294
    2.7390 	   50.9425 	   22.0000 	    0.0000 	   56.7924
    2.6169 	   51.0285 	   22.0000 	    0.0000 	   56.9644
    2.7237 	   51.1095 	   22.0000 	    0.0000 	   57.1264
    2.6627 	   51.1935 	   22.0000 	    0.0000 	   57.2944
    2.5559 	   51.2765 	   22.0000 	    0.0000 	   57.4604
    2.6932 	   51.3565 	   22.0000 	    0.0000 	   57.6204
    2.7237 	   51.4375 	   22.0000 	    0.0000 	   57.7824
    2.7695 	   51.5225 	   22.0000 	    0.0000 	   57.9524
    2.3880 	   51.6010 	   22.0000 	    0.0000 	   58.1095
    2.7237 	   51.6820 	   22.0000 	    0.0000 	   58.2715
    2.5406 	   51.7680 	   22.0000 	    0.0000 	   58.4435
    2.7695 	   51.8525 	   22.0000 	    0.0000 	   58.6125
    2.4948 	   51.9355 	   22.0000 	    0.0000 	   58.7785
    2.7390 	   52.0135 	   22.0000 	    0.0000 	   58.9345
    2.7237 	   52.0935 	   22.0000 	    0.0000 	   59.0945
    2.8458 	   52.1710 	   22.0000 	    0.0000 	   59.2495
    2.7237 	   52.2485 	   22.0000 	    0.0000 	   59.4045
    2.7390 	   52.3270 	   22.0000 	    0.0000 	   59.5615
    2.7085 	   52.4060 	   22.0000 	    0.0000 	   59.7196
    2.7543 	   52.4930 	   22.0000 	    0.0000 	   59.8936
    2.5101 	   52.5800 	   22.0000 	    1.0000 	    0.0676
    2.6017 	   52.6590 	   22.0000 	    1.0000 	    0.2256
    2.4796 	   52.7410 	   22.0000 	    1.0000 	    0.3896
    2.8763 	   52.8210 	   22.0000 	    1.0000 	    0.5496
    2.8458 	   52.9035 	   22.0000 	    1.0000 	    0.7146
    2.7695 	   52.9905 	   22.0000 	    1.0000 	    0.8886
    2.8305 	   53.0805 	   22.0000 	    1.0000 	    1.0686
    2.7848 	   53.1685 	   22.0000 	    1.0000 	    1.2446
    2.7848 	   53.2545 	   22.0000 	    1.0000 	    1.4166
    2.9221 	   53.3410 	   22.0000 	    1.0000 	    1.5897
    2.7695 	   53.4280 	   22.0000 	    1.0000 	    1.7637
    2.9679 	   53.5140 	   22.0000 	    1.0000 	    1.9357
    2.6780 	   53.6010 	   22.0000 	    1.0000 	    2.1097
    2.8458 	   53.6800 	   22.0000 	    1.0000 	    2.2677
    2.8000 	   53.7645 	   22.0000 	    1.0000 	    2.4367
    2.9374 	   53.8495 	   22.0000 	    1.0000 	    2.6067
    2.8916 	   53.9395 	   22.0000 	    1.0000 	    2.7867
    2.9679 	   54.0235 	   22.0000 	    1.0000 	    2.9547
    2.9526 	   54.1125 	   22.0000 	    1.0000 	    3.1327
    3.0594 	   54.1980 	   22.0000 	    1.0000 	    3.3038
    3.0442 	   54.2845 	   22.0000 	    1.0000 	    3.4768
    2.8611 	   54.3745 	   22.0000 	    1.0000 	    3.6568
    3.1357 	   54.4565 	   22.0000 	    1.0000 	    3.8208
    2.9831 	   54.5365 	   22.0000 	    1.0000 	    3.9808
    2.9831 	   54.6160 	   22.0000 	    1.0000 	    4.1398
    2.8916 	   54.6980 	   22.0000 	    1.0000 	    4.3038
    3.0594 	   54.7795 	   22.0000 	    1.0000 	    4.4668
    2.9831 	   54.8580 	   22.0000 	    1.0000 	    4.6238
    3.1815 	   54.9415 	   22.0000 	    1.0000 	    4.7908
    2.9831 	   55.0290 	   22.0000 	    1.0000 	    4.9659
    2.9831 	   55.1110 	   22.0000 	    1.0000 	    5.1299
    3.1205 	   55.1935 	   22.0000 	    1.0000 	    5.2949
    3.0747 	   55.2770 	   22.0000 	    1.0000 	    5.4619
    3.0747 	   55.3585 	   22.0000 	    1.0000 	    5.6249
    3.1052 	   55.4430 	   22.0000 	    1.0000 	    5.7939
    3.0747 	   55.5310 	   22.0000 	    1.0000 	    5.9699
    2.9831 	   55.6165 	   22.0000 	    1.0000 	    6.1409
    3.2425 	   55.7050 	   22.0000 	    1.0000 	    6.3179
    3.0594 	   55.7945 	   22.0000 	    1.0000 	    6.4969
    3.1357 	   55.8840 	   22.0000 	    1.0000 	    6.6759
    3.1205 	   55.9710 	   22.0000 	    1.0000 	    6.8500
    3.2578 	   56.0595 	   22.0000 	    1.0000 	    7.0270
    2.9984 	   56.1465 	   22.0000 	    1.0000 	    7.2010
    3.1662 	   56.2300 	   22.0000 	    1.0000 	    7.3680
    3.2883 	   56.3160 	   22.0000 	    1.0000 	    7.5390
    3.1052 	   56.3985 	   22.0000 	    1.0000 	    7.7040
    3.0594 	   56.4775 	   22.0000 	    1.0000 	    7.8620
    3.2425 	   56.5610 	   22.0000 	    1.0000 	    8.0290
    3.1662 	   56.6470 	   22.0000 	    1.0000 	    8.2010
    3.2273 	   56.7350 	   22.0000 	    1.0000 	    8.3770
    3.1968 	   56.8235 	   22.0000 	    1.0000 	    8.5541
    3.1815 	   56.9175 	   22.0000 	    1.0000 	    8.7421
    3.2425 	   57.0060 	   22.0000 	    1.0000 	    8.9191
    3.1968 	   57.0930 	   22.0000 	    1.0000 	    9.0931
    3.2731 	   57.1810 	   22.0000 	    1.0000 	    9.2691
    3.1968 	   57.2680 	   22.0000 	    1.0000 	    9.4431
    3.3188 	   57.3560 	   22.0000 	    1.0000 	    9.6191
    3.1968 	   57.4450 	   22.0000 	    1.0000 	    9.7971
    3.2578 	   57.5335 	   22.0000 	    1.0000 	    9.9741
    3.3494 	   57.6190 	   22.0000 	    1.0000 	   10.1451
    3.2273 	   57.7070 	   22.0000 	    1.0000 	   10.3212
    3.3341 	   57.7950 	   22.0000 	    1.0000 	   10.4972
    3.3951 	   57.8755 	   22.0000 	    1.0000 	   10.6582
    3.2120 	   57.9585 	   22.0000 	    1.0000 	   10.8242
    3.5019 	   58.0425 	   22.0000 	    1.0000 	   10.9922
    3.2425 	   58.1235 	   22.0000 	    1.0000 	   11.1542
    3.3646 	   58.2070 	   22.0000 	    1.0000 	   11.3212
    3.3951 	   58.2905 	   22.0000 	    1.0000 	   11.4882
    3.3036 	   58.3725 	   22.0000 	    1.0000 	   11.6522
    3.5477 	   58.4625 	   22.0000 	    1.0000 	   11.8322
    3.4257 	   58.5515 	   22.0000 	    1.0000 	   12.0103
    3.4257 	   58.6405 	   22.0000 	    1.0000 	   12.1883
    3.3646 	   58.7265 	   22.0000 	    1.0000 	   12.3603
    3.5782 	   58.8075 	   22.0000 	    1.0000 	   12.5223
    3.4257 	   58.8960 	   22.0000 	    1.0000 	   12.6993
    3.3799 	   58.9815 	   22.0000 	    1.0000 	   12.8703
    3.4714 	   59.0710 	   22.0000 	    1.0000 	   13.0493
    3.6240 	   59.1590 	   22.0000 	    1.0000 	   13.2253
    3.3951 	   59.2455 	   22.0000 	    1.0000 	   13.3983
    3.3951 	   59.3265 	   22.0000 	    1.0000 	   13.5603
    3.4257 	   59.4140 	   22.0000 	    1.0000 	   13.7354
    3.4562 	   59.4935 	   22.0000 	    1.0000 	   13.8944
    3.4562 	   59.5745 	   22.0000 	    1.0000 	   14.0564
    3.5477 	   59.6620 	   22.0000 	    1.0000 	   14.2314
    3.6545 	   59.7505 	   22.0000 	    1.0000 	   14.4084
    3.5782 	   59.8350 	   22.0000 	    1.0000 	   14.5774
    3.6088 	   59.9195 	   22.0000 	    1.0000 	   14.7464
    3.6240 	   60.0075 	   22.0000 	    1.0000 	   14.9224
    3.4714 	   60.0985 	   22.0000 	    1.0000 	   15.1044
    3.5477 	   60.1875 	   22.0000 	    1.0000 	   15.2824
    3.6393 	   60.2735 	   22.0000 	    1.0000 	   15.4545
    3.5630 	   60.3535 	   22.0000 	    1.0000 	   15.6145
    3.6088 	   60.4405 	   22.0000 	    1.0000 	   15.7885
    3.5019 	   60.5285 	   22.0000 	    1.0000 	   15.9645
    3.6240 	   60.6150 	   22.0000 	    1.0000 	   16.1375
    3.5630 	   60.6985 	   22.0000 	    1.0000 	   16.3045
    3.8071 	   60.7865 	   22.0000 	    1.0000 	   16.4805
    3.4714 	   60.8755 	   22.0000 	    1.0000 	   16.6585
    3.5630 	   60.9615 	   22.0000 	    1.0000 	   16.8305
    3.8071 	   61.0460 	   22.0000 	    1.0000 	   16.9995
    3.6545 	   61.1305 	   22.0000 	    1.0000 	   17.1685
    3.7919 	   61.2105 	   22.0000 	    1.0000 	   17.3286
    3.6545 	   61.2910 	   22.0000 	    1.0000 	   17.4896
    3.6545 	   61.3785 	   22.0000 	    1.0000 	   17.6646
    3.8682 	   61.4680 	   22.0000 	    1.0000 	   17.8436
    3.6088 	   61.5510 	   22.0000 	    1.0000 	   18.0096
    3.7461 	   61.6395 	   22.0000 	    1.0000 	   18.1866
    3.7613 	   61.7290 	   22.0000 	    1.0000 	   18.3656
    3.6698 	   61.8165 	   22.0000 	    1.0000 	   18.5406
    3.6240 	   61.9065 	   22.0000 	    1.0000 	   18.7206
    3.7461 	   61.9985 	   22.0000 	    1.0000 	   18.9046
    3.7461 	   62.0845 	   22.0000 	    1.0000 	   19.0767
    3.7766 	   62.1650 	   22.0000 	    1.0000 	   19.2377
    3.8529 	   62.2550 	   22.0000 	    1.0000 	   19.4177
    3.8071 	   62.3365 	   22.0000 	    1.0000 	   19.5807
    3.7919 	   62.4215 	   22.0000 	    1.0000 	   19.7507
    3.5782 	   62.5100 	   22.0000 	    1.0000 	   19.9277
    3.8376 	   62.5995 	   22.0000 	    1.0000 	   20.1067
    3.8529 	   62.6810 	   22.0000 	    1.0000 	   20.2697
    3.8834 	   62.7650 	   22.0000 	    1.0000 	   20.4377
    3.7919 	   62.8460 	   22.0000 	    1.0000 	   20.5997
    3.8071 	   62.9280 	   22.0000 	    1.0000 	   20.7638
    3.7766 	   63.0090 	   22.0000 	    1.0000 	   20.9258
    3.8376 	   63.0900 	   22.0000 	    1.0000 	   21.0878
    3.9445 	   63.1775 	   22.0000 	    1.0000 	   21.2628
    3.8682 	   63.2630 	   22.0000 	    1.0000 	   21.4338
    3.8682 	   63.3500 	   22.0000 	    1.0000 	   21.6078
    3.8071 	   63.4405 	   22.0000 	    1.0000 	   21.7888
    3.9750 	   63.5305 	   22.0000 	    1.0000 	   21.9688
    3.9902 	   63.6155 	   22.0000 	    1.0000 	   22.1388
    3.9750 	   63.6980 	   22.0000 	    1.0000 	   22.3038
    3.9597 	   63.7805 	   22.0000 	    1.0000 	   22.4689
    3.9292 	   63.8620 	   22.0000 	    1.0000 	   22.6319
    3.9139 	   63.9520 	   22.0000 	    1.0000 	   22.8119
    3.8071 	   64.0375 	   22.0000 	    1.0000 	   22.9829
    3.8682 	   64.1250 	   22.0000 	    1.0000 	   23.1579
    3.9597 	   64.2140 	   22.0000 	    1.0000 	   23.3359
    3.9139 	   64.3045 	   22.0000 	    1.0000 	   23.5169
    3.9292 	   64.3955 	   22.0000 	    1.0000 	   23.6989
    3.7766 	   64.4850 	   22.0000 	    1.0000 	   23.8779
    3.7613 	   64.5695 	   22.0000 	    1.0000 	   24.0469
    3.9445 	   64.6540 	   22.0000 	    1.0000 	   24.2160
    3.9445 	   64.7455 	   22.0000 	    1.0000 	   24.3990
    3.9750 	   64.8265 	   22.0000 	    1.0000 	   24.5610
    3.9750 	   64.9115 	   22.0000 	    1.0000 	   24.7310
    4.0360 	   64.9955 	   22.0000 	    1.0000 	   24.8990
    3.7308 	   65.0805 	   22.0000 	    1.0000 	   25.0680