File: instron/10_grey_3W15L_drag40_spd10.txt
Thayer School of Engineering        Instron 4442 Mechanical Testing System
6/28/2018 12:08:06 AM

  Force (N)	Extension (mm)	Not Used	Not Used	Not Used	     Hour	    Minute	    Second
    0.0687 	    0.1708 	    0.0000 	    9.0000 	   27.2822
   -0.0229 	    0.2818 	    0.0000 	    9.0000 	   27.9483
    0.0229 	    0.3902 	    0.0000 	    9.0000 	   28.5983
    0.0534 	    0.4880 	    0.0000 	    9.0000 	   29.1853
    0.0076 	    0.5800 	    0.0000 	    9.0000 	   29.7374
    0.1755 	    0.6568 	    0.0000 	    9.0000 	   30.1984
    0.2365 	    0.7288 	    0.0000 	    9.0000 	   30.6304
   -0.0076 	    0.7982 	    0.0000 	    9.0000 	   31.0465
   -0.1907 	    0.8655 	    0.0000 	    9.0000 	   31.4505
    0.2060 	    0.9357 	    0.0000 	    9.0000 	   31.8715
    0.1450 	    1.0057 	    0.0000 	    9.0000 	   32.2915
    0.0229 	    1.0737 	    0.0000 	    9.0000 	   32.6995
    0.0381 	    1.1427 	    0.0000 	    9.0000 	   33.1136
    0.0076 	    1.2127 	    0.0000 	    9.0000 	   33.5336
    0.0839 	    1.2833 	    0.0000 	    9.0000 	   33.9576
    0.0381 	    1.3558 	    0.0000 	    9.0000 	   34.3926
    0.0076 	    1.4253 	    0.0000 	    9.0000 	   34.8097
   -0.0076 	    1.4962 	    0.0000 	    9.0000 	   35.2347
    0.0229 	    1.5665 	    0.0000 	    9.0000 	   35.6567
    0.0076 	    1.6377 	    0.0000 	    9.0000 	   36.0837
   -0.0381 	    1.7083 	    0.0000 	    9.0000 	   36.5078
    0.0229 	    1.7773 	    0.0000 	    9.0000 	   36.9208
    0.1450 	    1.8448 	    0.0000 	    9.0000 	   37.3258
    0.1144 	    1.9142 	    0.0000 	    9.0000 	   37.7418
   -0.0381 	    1.9853 	    0.0000 	    9.0000 	   38.1689
    0.0076 	    2.0560 	    0.0000 	    9.0000 	   38.5929
    0.1297 	    2.1283 	    0.0000 	    9.0000 	   39.0269
    0.1297 	    2.1958 	    0.0000 	    9.0000 	   39.4319
    0.0992 	    2.2618 	    0.0000 	    9.0000 	   39.8280
    0.1297 	    2.3352 	    0.0000 	    9.0000 	   40.2680
    0.1297 	    2.4072 	    0.0000 	    9.0000 	   40.7000
   -0.0381 	    2.4785 	    0.0000 	    9.0000 	   41.1280
    0.1450 	    2.5453 	    0.0000 	    9.0000 	   41.5291
    0.1450 	    2.6080 	    0.0000 	    9.0000 	   41.9051
    0.1450 	    2.6793 	    0.0000 	    9.0000 	   42.3331
    0.1907 	    2.7525 	    0.0000 	    9.0000 	   42.7721
    0.0534 	    2.8257 	    0.0000 	    9.0000 	   43.2111
    0.2060 	    2.8983 	    0.0000 	    9.0000 	   43.6472
    0.0381 	    2.9713 	    0.0000 	    9.0000 	   44.0852
    0.1602 	    3.0448 	    0.0000 	    9.0000 	   44.5262
    0.2060 	    3.1172 	    0.0000 	    9.0000 	   44.9602
    0.1907 	    3.1893 	    0.0000 	    9.0000 	   45.3933
    0.2060 	    3.2628 	    0.0000 	    9.0000 	   45.8343
    0.1297 	    3.3370 	    0.0000 	    9.0000 	   46.2793
    0.1450 	    3.4120 	    0.0000 	    9.0000 	   46.7293
    0.3281 	    3.4863 	    0.0000 	    9.0000 	   47.1754
    0.1450 	    3.5612 	    0.0000 	    9.0000 	   47.6244
    0.2823 	    3.6363 	    0.0000 	    9.0000 	   48.0754
    0.2213 	    3.7122 	    0.0000 	    9.0000 	   48.5305
    0.2213 	    3.7877 	    0.0000 	    9.0000 	   48.9835
    0.3433 	    3.8628 	    0.0000 	    9.0000 	   49.4345
    0.2365 	    3.9345 	    0.0000 	    9.0000 	   49.8645
    0.2670 	    4.0105 	    0.0000 	    9.0000 	   50.3206
    0.2213 	    4.0853 	    0.0000 	    9.0000 	   50.7696
    0.4196 	    4.1608 	    0.0000 	    9.0000 	   51.2226
    0.2365 	    4.2305 	    0.0000 	    9.0000 	   51.6406
    0.0687 	    4.3017 	    0.0000 	    9.0000 	   52.0677
    0.4349 	    4.3760 	    0.0000 	    9.0000 	   52.5137
    0.4196 	    4.4522 	    0.0000 	    9.0000 	   52.9707
    0.4959 	    4.5275 	    0.0000 	    9.0000 	   53.4227
    0.3891 	    4.5997 	    0.0000 	    9.0000 	   53.8558
    0.5722 	    4.6770 	    0.0000 	    9.0000 	   54.3188
    0.5722 	    4.7545 	    0.0000 	    9.0000 	   54.7838
    0.5570 	    4.8282 	    0.0000 	    9.0000 	   55.2258
    0.5112 	    4.9052 	    0.0000 	    9.0000 	   55.6879
    0.5570 	    4.9835 	    0.0000 	    9.0000 	   56.1579
    0.6180 	    5.0608 	    0.0000 	    9.0000 	   56.6219
    0.6790 	    5.1363 	    0.0000 	    9.0000 	   57.0749
    0.5570 	    5.2130 	    0.0000 	    9.0000 	   57.5350
    0.6027 	    5.2893 	    0.0000 	    9.0000 	   57.9930
    0.6027 	    5.3683 	    0.0000 	    9.0000 	   58.4670
    0.7248 	    5.4455 	    0.0000 	    9.0000 	   58.9300
    0.6943 	    5.5135 	    0.0000 	    9.0000 	   59.3381
    0.7248 	    5.5862 	    0.0000 	    9.0000 	   59.7741
    0.8469 	    5.6660 	    0.0000 	   10.0000 	    0.2531
    0.8316 	    5.7433 	    0.0000 	   10.0000 	    0.7171
    0.9842 	    5.8207 	    0.0000 	   10.0000 	    1.1812
    0.8621 	    5.8942 	    0.0000 	   10.0000 	    1.6222
    0.9689 	    5.9710 	    0.0000 	   10.0000 	    2.0832
    0.9537 	    6.0495 	    0.0000 	   10.0000 	    2.5543
    1.0452 	    6.1242 	    0.0000 	   10.0000 	    3.0023
    0.9232 	    6.2018 	    0.0000 	   10.0000 	    3.4683
    0.9995 	    6.2797 	    0.0000 	   10.0000 	    3.9353
    1.0910 	    6.3572 	    0.0000 	   10.0000 	    4.4004
    1.1978 	    6.4348 	    0.0000 	   10.0000 	    4.8664
    1.1215 	    6.5132 	    0.0000 	   10.0000 	    5.3364
    1.1063 	    6.5845 	    0.0000 	   10.0000 	    5.7644
    1.1673 	    6.6573 	    0.0000 	   10.0000 	    6.2015
    1.0300 	    6.7278 	    0.0000 	   10.0000 	    6.6245
    1.2131 	    6.8055 	    0.0000 	   10.0000 	    7.0905
    1.2741 	    6.8840 	    0.0000 	   10.0000 	    7.5615
    1.2894 	    6.9602 	    0.0000 	   10.0000 	    8.0186
    1.1521 	    7.0383 	    0.0000 	   10.0000 	    8.4876
    1.1673 	    7.1175 	    0.0000 	   10.0000 	    8.9626
    1.2589 	    7.1940 	    0.0000 	   10.0000 	    9.4216
    1.2894 	    7.2647 	    0.0000 	   10.0000 	    9.8457
    1.4115 	    7.3372 	    0.0000 	   10.0000 	   10.2807
    1.1826 	    7.4150 	    0.0000 	   10.0000 	   10.7477
    1.3504 	    7.4852 	    0.0000 	   10.0000 	   11.1687
    1.3046 	    7.5597 	    0.0000 	   10.0000 	   11.6158
    1.4420 	    7.6330 	    0.0000 	   10.0000 	   12.0548
    1.3809 	    7.7123 	    0.0000 	   10.0000 	   12.5308
    1.3657 	    7.7937 	    0.0000 	   10.0000 	   13.0189
    1.3962 	    7.8745 	    0.0000 	   10.0000 	   13.5039
    1.3046 	    7.9542 	    0.0000 	   10.0000 	   13.9819
    1.6251 	    8.0282 	    0.0000 	   10.0000 	   14.4259
    1.5030 	    8.1092 	    0.0000 	   10.0000 	   14.9120
    1.4725 	    8.1895 	    0.0000 	   10.0000 	   15.3940
    1.5335 	    8.2693 	    0.0000 	   10.0000 	   15.8730
    1.3504 	    8.3507 	    0.0000 	   10.0000 	   16.3610
    1.5793 	    8.4317 	    0.0000 	   10.0000 	   16.8471
    1.5946 	    8.5098 	    0.0000 	   10.0000 	   17.3161
    1.7014 	    8.5893 	    0.0000 	   10.0000 	   17.7931
    1.5640 	    8.6737 	    0.0000 	   10.0000 	   18.2992
    1.2894 	    8.7460 	    0.0000 	   10.0000 	   18.7332
    1.5946 	    8.8197 	    0.0000 	   10.0000 	   19.1752
    1.5335 	    8.8930 	    0.0000 	   10.0000 	   19.6152
    1.6861 	    8.9757 	    0.0000 	   10.0000 	   20.1113
    1.5793 	    9.0550 	    0.0000 	   10.0000 	   20.5873
    1.6709 	    9.1345 	    0.0000 	   10.0000 	   21.0643
    1.7014 	    9.2150 	    0.0000 	   10.0000 	   21.5473
    1.8082 	    9.2980 	    0.0000 	   10.0000 	   22.0454
    1.7929 	    9.3787 	    0.0000 	   10.0000 	   22.5294
    1.5946 	    9.4578 	    0.0000 	   10.0000 	   23.0044
    1.8540 	    9.5382 	    0.0000 	   10.0000 	   23.4865
    1.7777 	    9.6225 	    0.0000 	   10.0000 	   23.9925
    1.7014 	    9.7058 	    0.0000 	   10.0000 	   24.4925
    1.8082 	    9.7818 	    0.0000 	   10.0000 	   24.9485
    1.8235 	    9.8587 	    0.0000 	   10.0000 	   25.4096
    1.8692 	    9.9383 	    0.0000 	   10.0000 	   25.8876
    1.5793 	   10.0228 	    0.0000 	   10.0000 	   26.3946
    1.9150 	   10.1072 	    0.0000 	   10.0000 	   26.9006
    1.8387 	   10.1902 	    0.0000 	   10.0000 	   27.3987
    1.9303 	   10.2683 	    0.0000 	   10.0000 	   27.8677
    1.8387 	   10.3513 	    0.0000 	   10.0000 	   28.3657
    2.0371 	   10.4353 	    0.0000 	   10.0000 	   28.8698
    1.9303 	   10.5195 	    0.0000 	   10.0000 	   29.3738
    2.1286 	   10.6040 	    0.0000 	   10.0000 	   29.8808
    1.8997 	   10.6955 	    0.0000 	   10.0000 	   30.4298
    2.0371 	   10.7803 	    0.0000 	   10.0000 	   30.9389
    1.6709 	   10.8648 	    0.0000 	   10.0000 	   31.4459
    1.7624 	   10.9393 	    0.0000 	   10.0000 	   31.8929
    2.0829 	   11.0227 	    0.0000 	   10.0000 	   32.3930
    1.9608 	   11.1023 	    0.0000 	   10.0000 	   32.8710
    2.1592 	   11.1872 	    0.0000 	   10.0000 	   33.3800
    2.2660 	   11.2725 	    0.0000 	   10.0000 	   33.8920
    2.2507 	   11.3578 	    0.0000 	   10.0000 	   34.4041
    2.0981 	   11.4435 	    0.0000 	   10.0000 	   34.9181
    2.2202 	   11.5308 	    0.0000 	   10.0000 	   35.4421
    2.0981 	   11.6167 	    0.0000 	   10.0000 	   35.9572
    2.2049 	   11.7043 	    0.0000 	   10.0000 	   36.4832
    2.2354 	   11.7915 	    0.0000 	   10.0000 	   37.0062
    2.0981 	   11.8768 	    0.0000 	   10.0000 	   37.5183
    2.2049 	   11.9635 	    0.0000 	   10.0000 	   38.0383
    2.3117 	   12.0495 	    0.0000 	   10.0000 	   38.5543
    2.0218 	   12.1355 	    0.0000 	   10.0000 	   39.0703
    2.3728 	   12.2215 	    0.0000 	   10.0000 	   39.5864
    2.2812 	   12.3040 	    0.0000 	   10.0000 	   40.0814
    2.2965 	   12.3803 	    0.0000 	   10.0000 	   40.5394
    2.2965 	   12.4572 	    0.0000 	   10.0000 	   41.0005
    2.2049 	   12.5348 	    0.0000 	   10.0000 	   41.4665
    2.4796 	   12.6110 	    0.0000 	   10.0000 	   41.9235
    2.2202 	   12.6973 	    0.0000 	   10.0000 	   42.4415
    2.4796 	   12.7758 	    0.0000 	   10.0000 	   42.9126
    2.4491 	   12.8527 	    0.0000 	   10.0000 	   43.3736
    2.4491 	   12.9305 	    0.0000 	   10.0000 	   43.8406
    2.3270 	   13.0075 	    0.0000 	   10.0000 	   44.3026
    2.5559 	   13.0855 	    0.0000 	   10.0000 	   44.7707
    2.6627 	   13.1630 	    0.0000 	   10.0000 	   45.2357
    2.3575 	   13.2413 	    0.0000 	   10.0000 	   45.7057
    2.4491 	   13.3217 	    0.0000 	   10.0000 	   46.1877
    2.4796 	   13.4000 	    0.0000 	   10.0000 	   46.6568
    2.5254 	   13.4778 	    0.0000 	   10.0000 	   47.1238
    2.5711 	   13.5615 	    0.0000 	   10.0000 	   47.6258
    2.5711 	   13.6415 	    0.0000 	   10.0000 	   48.1059
    2.5254 	   13.7200 	    0.0000 	   10.0000 	   48.5769
    2.5254 	   13.8035 	    0.0000 	   10.0000 	   49.0779
    2.7390 	   13.8835 	    0.0000 	   10.0000 	   49.5579
    2.6017 	   13.9662 	    0.0000 	   10.0000 	   50.0540
    2.6322 	   14.0467 	    0.0000 	   10.0000 	   50.5370
    2.7237 	   14.1252 	    0.0000 	   10.0000 	   51.0080
    2.7085 	   14.2052 	    0.0000 	   10.0000 	   51.4881
    2.7695 	   14.2845 	    0.0000 	   10.0000 	   51.9641
    2.7085 	   14.3688 	    0.0000 	   10.0000 	   52.4701
    2.6322 	   14.4587 	    0.0000 	   10.0000 	   53.0091
    2.7695 	   14.5490 	    0.0000 	   10.0000 	   53.5512
    2.7695 	   14.6382 	    0.0000 	   10.0000 	   54.0862
    2.7543 	   14.7278 	    0.0000 	   10.0000 	   54.6242
    2.8153 	   14.8190 	    0.0000 	   10.0000 	   55.1713
    2.7695 	   14.9085 	    0.0000 	   10.0000 	   55.7083
    2.8305 	   14.9995 	    0.0000 	   10.0000 	   56.2543
    2.8000 	   15.0903 	    0.0000 	   10.0000 	   56.7994
    2.8305 	   15.1808 	    0.0000 	   10.0000 	   57.3424
    2.8153 	   15.2717 	    0.0000 	   10.0000 	   57.8874
    2.9068 	   15.3625 	    0.0000 	   10.0000 	   58.4324
    2.7695 	   15.4518 	    0.0000 	   10.0000 	   58.9685
    2.9221 	   15.5440 	    0.0000 	   10.0000 	   59.5215
    2.8611 	   15.6367 	    0.0000 	   11.0000 	    0.0775
    3.0594 	   15.7277 	    0.0000 	   11.0000 	    0.6236
    2.9679 	   15.8170 	    0.0000 	   11.0000 	    1.1596
    3.0289 	   15.9077 	    0.0000 	   11.0000 	    1.7036
    3.1357 	   15.9988 	    0.0000 	   11.0000 	    2.2507
    2.9984 	   16.0898 	    0.0000 	   11.0000 	    2.7967
    2.8916 	   16.1812 	    0.0000 	   11.0000 	    3.3447
    3.1052 	   16.2737 	    0.0000 	   11.0000 	    3.8998
    2.9679 	   16.3632 	    0.0000 	   11.0000 	    4.4358
    3.0442 	   16.4548 	    0.0000 	   11.0000 	    4.9858
    3.1510 	   16.5478 	    0.0000 	   11.0000 	    5.5439
    3.1357 	   16.6405 	    0.0000 	   11.0000 	    6.0999
    2.8000 	   16.7328 	    0.0000 	   11.0000 	    6.6539
    3.1357 	   16.8227 	    0.0000 	   11.0000 	    7.1930
    3.0442 	   16.9130 	    0.0000 	   11.0000 	    7.7350
    3.0442 	   17.0055 	    0.0000 	   11.0000 	    8.2900
    3.2425 	   17.0993 	    0.0000 	   11.0000 	    8.8530
    3.1510 	   17.1928 	    0.0000 	   11.0000 	    9.4141
    3.2731 	   17.2872 	    0.0000 	   11.0000 	    9.9791
    3.2883 	   17.3807 	    0.0000 	   11.0000 	   10.5411
    3.3036 	   17.4752 	    0.0000 	   11.0000 	   11.1082
    3.3799 	   17.5640 	    0.0000 	   11.0000 	   11.6412
    3.2273 	   17.6592 	    0.0000 	   11.0000 	   12.2122
    3.3036 	   17.7523 	    0.0000 	   11.0000 	   12.7713
    3.3646 	   17.8408 	    0.0000 	   11.0000 	   13.3023
    3.3494 	   17.9298 	    0.0000 	   11.0000 	   13.8363
    3.3646 	   18.0190 	    0.0000 	   11.0000 	   14.3714
    3.3494 	   18.1075 	    0.0000 	   11.0000 	   14.9024
    3.5172 	   18.1977 	    0.0000 	   11.0000 	   15.4434
    3.5935 	   18.2910 	    0.0000 	   11.0000 	   16.0025
    3.5019 	   18.3828 	    0.0000 	   11.0000 	   16.5545
    3.6545 	   18.4767 	    0.0000 	   11.0000 	   17.1175
    3.5630 	   18.5643 	    0.0000 	   11.0000 	   17.6435
    3.5935 	   18.6593 	    0.0000 	   11.0000 	   18.2136
    3.5019 	   18.7512 	    0.0000 	   11.0000 	   18.7646
    3.5782 	   18.8455 	    0.0000 	   11.0000 	   19.3306
    3.4867 	   18.9352 	    0.0000 	   11.0000 	   19.8687
    3.6851 	   19.0308 	    0.0000 	   11.0000 	   20.4427
    3.6240 	   19.1237 	    0.0000 	   11.0000 	   20.9997
    3.6393 	   19.2187 	    0.0000 	   11.0000 	   21.5698
    3.5325 	   19.3125 	    0.0000 	   11.0000 	   22.1318
    3.6851 	   19.4053 	    0.0000 	   11.0000 	   22.6888
    3.8224 	   19.5012 	    0.0000 	   11.0000 	   23.2639
    3.6088 	   19.5935 	    0.0000 	   11.0000 	   23.8179
    3.6851 	   19.6868 	    0.0000 	   11.0000 	   24.3779
    3.7308 	   19.7827 	    0.0000 	   11.0000 	   24.9530
    3.7461 	   19.8772 	    0.0000 	   11.0000 	   25.5200
    3.9139 	   19.9742 	    0.0000 	   11.0000 	   26.1020
    3.7613 	   20.0705 	    0.0000 	   11.0000 	   26.6801
    3.6240 	   20.1652 	    0.0000 	   11.0000 	   27.2481
    3.9445 	   20.2555 	    0.0000 	   11.0000 	   27.7901
    3.8987 	   20.3505 	    0.0000 	   11.0000 	   28.3602
    3.9902 	   20.4420 	    0.0000 	   11.0000 	   28.9092
    3.9445 	   20.5388 	    0.0000 	   11.0000 	   29.4902
    3.8071 	   20.6375 	    0.0000 	   11.0000 	   30.0823
    4.0665 	   20.7273 	    0.0000 	   11.0000 	   30.6213
    3.9597 	   20.8167 	    0.0000 	   11.0000 	   31.1573
    4.0208 	   20.9142 	    0.0000 	   11.0000 	   31.7424
    4.0360 	   21.0087 	    0.0000 	   11.0000 	   32.3094
    4.0818 	   21.1048 	    0.0000 	   11.0000 	   32.8864
    4.0665 	   21.2027 	    0.0000 	   11.0000 	   33.4735
    4.1733 	   21.2987 	    0.0000 	   11.0000 	   34.0495
    4.1123 	   21.3957 	    0.0000 	   11.0000 	   34.6315
    4.1123 	   21.4935 	    0.0000 	   11.0000 	   35.2186
    4.0208 	   21.5897 	    0.0000 	   11.0000 	   35.7956
    4.2649 	   21.6883 	    0.0000 	   11.0000 	   36.3876
    4.2954 	   21.7868 	    0.0000 	   11.0000 	   36.9787
    4.3565 	   21.8797 	    0.0000 	   11.0000 	   37.5357
    4.2802 	   21.9745 	    0.0000 	   11.0000 	   38.1047
    4.2344 	   22.0735 	    0.0000 	   11.0000 	   38.6988
    4.3107 	   22.1688 	    0.0000 	   11.0000 	   39.2698
    4.2496 	   22.2682 	    0.0000 	   11.0000 	   39.8658
    4.4480 	   22.3663 	    0.0000 	   11.0000 	   40.4549
    4.4785 	   22.4622 	    0.0000 	   11.0000 	   41.0299
    4.3412 	   22.5580 	    0.0000 	   11.0000 	   41.6049
    4.4785 	   22.6575 	    0.0000 	   11.0000 	   42.2020
    4.4327 	   22.7545 	    0.0000 	   11.0000 	   42.7840
    4.4785 	   22.8518 	    0.0000 	   11.0000 	   43.3680
    4.2954 	   22.9510 	    0.0000 	   11.0000 	   43.9631
    4.4327 	   23.0500 	    0.0000 	   11.0000 	   44.5571
    4.6159 	   23.1495 	    0.0000 	   11.0000 	   45.1541
    4.6159 	   23.2495 	    0.0000 	   11.0000 	   45.7542
    4.6616 	   23.3483 	    0.0000 	   11.0000 	   46.3472
    4.6921 	   23.4483 	    0.0000 	   11.0000 	   46.9472
    4.6311 	   23.5452 	    0.0000 	   11.0000 	   47.5283
    4.6464 	   23.6420 	    0.0000 	   11.0000 	   48.1093
    4.6769 	   23.7397 	    0.0000 	   11.0000 	   48.6953
    4.6159 	   23.8373 	    0.0000 	   11.0000 	   49.2814
    4.7990 	   23.9348 	    0.0000 	   11.0000 	   49.8664
    4.6464 	   24.0347 	    0.0000 	   11.0000 	   50.4654
    4.5853 	   24.1338 	    0.0000 	   11.0000 	   51.0605
    4.7532 	   24.2315 	    0.0000 	   11.0000 	   51.6465
    4.8905 	   24.3307 	    0.0000 	   11.0000 	   52.2415
    4.7074 	   24.4282 	    0.0000 	   11.0000 	   52.8266
    4.8905 	   24.5298 	    0.0000 	   11.0000 	   53.4366
    5.0431 	   24.6302 	    0.0000 	   11.0000 	   54.0386
    4.8295 	   24.7312 	    0.0000 	   11.0000 	   54.6447
    4.9821 	   24.8310 	    0.0000 	   11.0000 	   55.2437
    5.0736 	   24.9303 	    0.0000 	   11.0000 	   55.8397
    4.9516 	   25.0313 	    0.0000 	   11.0000 	   56.4458
    5.1041 	   25.1310 	    0.0000 	   11.0000 	   57.0428
    5.1347 	   25.2317 	    0.0000 	   11.0000 	   57.6468
    5.0736 	   25.3338 	    0.0000 	   11.0000 	   58.2599
    5.0889 	   25.4343 	    0.0000 	   11.0000 	   58.8629
    5.1347 	   25.5362 	    0.0000 	   11.0000 	   59.4739
    5.1804 	   25.6342 	    0.0000 	   12.0000 	    0.0620
    5.2262 	   25.7358 	    0.0000 	   12.0000 	    0.6720
    5.2110 	   25.8347 	    0.0000 	   12.0000 	    1.2650
    5.3178 	   25.9342 	    0.0000 	   12.0000 	    1.8621
    5.3025 	   26.0373 	    0.0000 	   12.0000 	    2.4811
    5.0278 	   26.1385 	    0.0000 	   12.0000 	    3.0881
    5.3178 	   26.2332 	    0.0000 	   12.0000 	    3.6562
    5.3788 	   26.3257 	    0.0000 	   12.0000 	    4.2112
    5.3330 	   26.4183 	    0.0000 	   12.0000 	    4.7672
    5.3941 	   26.5112 	    0.0000 	   12.0000 	    5.3243
    5.2567 	   26.6058 	    0.0000 	   12.0000 	    5.8923
    5.5772 	   26.6977 	    0.0000 	   12.0000 	    6.4433
    5.5314 	   26.7907 	    0.0000 	   12.0000 	    7.0014
    5.4704 	   26.8838 	    0.0000 	   12.0000 	    7.5604
    5.4246 	   26.9778 	    0.0000 	   12.0000 	    8.1244
    5.6229 	   27.0710 	    0.0000 	   12.0000 	    8.6835
    5.6229 	   27.1665 	    0.0000 	   12.0000 	    9.2565
    5.7450 	   27.2607 	    0.0000 	   12.0000 	    9.8215
    5.6077 	   27.3540 	    0.0000 	   12.0000 	   10.3816
    5.7908 	   27.4477 	    0.0000 	   12.0000 	   10.9436
    5.6229 	   27.5418 	    0.0000 	   12.0000 	   11.5086
    5.8518 	   27.6380 	    0.0000 	   12.0000 	   12.0857
    5.9892 	   27.7335 	    0.0000 	   12.0000 	   12.6587
    6.0655 	   27.8285 	    0.0000 	   12.0000 	   13.2287
    5.7908 	   27.9220 	    0.0000 	   12.0000 	   13.7898
    5.9586 	   28.0170 	    0.0000 	   12.0000 	   14.3588
    5.9586 	   28.1130 	    0.0000 	   12.0000 	   14.9348
    5.9586 	   28.2073 	    0.0000 	   12.0000 	   15.5009
    5.9586 	   28.3012 	    0.0000 	   12.0000 	   16.0639
    6.0197 	   28.3950 	    0.0000 	   12.0000 	   16.6269
    6.0807 	   28.4900 	    0.0000 	   12.0000 	   17.1970
    6.0044 	   28.5853 	    0.0000 	   12.0000 	   17.7690
    6.2028 	   28.6810 	    0.0000 	   12.0000 	   18.3430
    6.2791 	   28.7752 	    0.0000 	   12.0000 	   18.9081
    6.2943 	   28.8700 	    0.0000 	   12.0000 	   19.4771
    6.1723 	   28.9658 	    0.0000 	   12.0000 	   20.0521
    6.2943 	   29.0627 	    0.0000 	   12.0000 	   20.6332
    6.4012 	   29.1570 	    0.0000 	   12.0000 	   21.1992
    6.4012 	   29.2522 	    0.0000 	   12.0000 	   21.7702
    6.4012 	   29.3477 	    0.0000 	   12.0000 	   22.3432
    6.3554 	   29.4420 	    0.0000 	   12.0000 	   22.9093
    6.6606 	   29.5380 	    0.0000 	   12.0000 	   23.4853
    6.6453 	   29.6332 	    0.0000 	   12.0000 	   24.0563
    6.5995 	   29.7293 	    0.0000 	   12.0000 	   24.6334
    6.5995 	   29.8250 	    0.0000 	   12.0000 	   25.2074
    6.7521 	   29.9230 	    0.0000 	   12.0000 	   25.7954
    6.5232 	   30.0192 	    0.0000 	   12.0000 	   26.3725
    6.7216 	   30.1162 	    0.0000 	   12.0000 	   26.9545
    6.8742 	   30.2117 	    0.0000 	   12.0000 	   27.5275
    6.7674 	   30.3085 	    0.0000 	   12.0000 	   28.1086
    6.8742 	   30.4062 	    0.0000 	   12.0000 	   28.6946
    6.9200 	   30.5042 	    0.0000 	   12.0000 	   29.2826
    6.8437 	   30.6020 	    0.0000 	   12.0000 	   29.8697
    6.9505 	   30.6980 	    0.0000 	   12.0000 	   30.4457
    7.1031 	   30.8005 	    0.0000 	   12.0000 	   31.0607
    7.2251 	   30.9002 	    0.0000 	   12.0000 	   31.6578
    7.0726 	   31.0048 	    0.0000 	   12.0000 	   32.2858
    7.0268 	   31.1045 	    0.0000 	   12.0000 	   32.8839
    7.3777 	   31.2048 	    0.0000 	   12.0000 	   33.4859
    7.3472 	   31.3095 	    0.0000 	   12.0000 	   34.1139
    7.2709 	   31.4115 	    0.0000 	   12.0000 	   34.7260
    7.4083 	   31.5178 	    0.0000 	   12.0000 	   35.3640
    7.6219 	   31.6245 	    0.0000 	   12.0000 	   36.0040
    7.5456 	   31.7270 	    0.0000 	   12.0000 	   36.6191
    7.7897 	   31.8322 	    0.0000 	   12.0000 	   37.2501
    7.8508 	   31.9362 	    0.0000 	   12.0000 	   37.8741
    7.7134 	   32.0368 	    0.0000 	   12.0000 	   38.4782
    7.8508 	   32.1368 	    0.0000 	   12.0000 	   39.0782
    7.9881 	   32.2348 	    0.0000 	   12.0000 	   39.6662
    7.8660 	   32.3342 	    0.0000 	   12.0000 	   40.2623
    8.0644 	   32.4315 	    0.0000 	   12.0000 	   40.8463
    8.0797 	   32.5305 	    0.0000 	   12.0000 	   41.4403
    8.1712 	   32.6302 	    0.0000 	   12.0000 	   42.0384
    8.2322 	   32.7320 	    0.0000 	   12.0000 	   42.6494
    8.1254 	   32.8332 	    0.0000 	   12.0000 	   43.2564
    8.1712 	   32.9317 	    0.0000 	   12.0000 	   43.8475
    8.2475 	   33.0355 	    0.0000 	   12.0000 	   44.4705
    8.4153 	   33.1368 	    0.0000 	   12.0000 	   45.0785
    8.5527 	   33.2352 	    0.0000 	   12.0000 	   45.6676
    8.6748 	   33.3355 	    0.0000 	   12.0000 	   46.2706
    8.6137 	   33.4340 	    0.0000 	   12.0000 	   46.8617
    8.7205 	   33.5327 	    0.0000 	   12.0000 	   47.4537
    8.7968 	   33.6330 	    0.0000 	   12.0000 	   48.0557
    8.9952 	   33.7327 	    0.0000 	   12.0000 	   48.6538
    9.0562 	   33.8327 	    0.0000 	   12.0000 	   49.2528
    9.2393 	   33.9317 	    0.0000 	   12.0000 	   49.8468
    8.9952 	   34.0337 	    0.0000 	   12.0000 	   50.4589
    9.2699 	   34.1335 	    0.0000 	   12.0000 	   51.0579
    9.1630 	   34.2340 	    0.0000 	   12.0000 	   51.6609
    9.4987 	   34.3362 	    0.0000 	   12.0000 	   52.2740
    9.4377 	   34.4363 	    0.0000 	   12.0000 	   52.8750
    9.7581 	   34.5395 	    0.0000 	   12.0000 	   53.4940
    9.6818 	   34.6408 	    0.0000 	   12.0000 	   54.1021
    9.7276 	   34.7420 	    0.0000 	   12.0000 	   54.7091
    9.5750 	   34.8460 	    0.0000 	   12.0000 	   55.3331
    9.9107 	   34.9535 	    0.0000 	   12.0000 	   55.9782
   10.1396 	   35.0750 	    0.0000 	   12.0000 	   56.7072
   10.2159 	   35.1813 	    0.0000 	   12.0000 	   57.3452
   10.2922 	   35.2890 	    0.0000 	   12.0000 	   57.9913
   10.3380 	   35.3967 	    0.0000 	   12.0000 	   58.6373
   10.5669 	   35.5073 	    0.0000 	   12.0000 	   59.3014
   10.6432 	   35.6157 	    0.0000 	   12.0000 	   59.9514
   10.6889 	   35.7205 	    0.0000 	   13.0000 	    0.5804
   11.0399 	   35.8273 	    0.0000 	   13.0000 	    1.2215
   11.0246 	   35.9398 	    0.0000 	   13.0000 	    1.8965
   11.2230 	   36.0513 	    0.0000 	   13.0000 	    2.5655
   11.4824 	   36.1598 	    0.0000 	   13.0000 	    3.2166
   11.4824 	   36.2682 	    0.0000 	   13.0000 	    3.8666
   11.5740 	   36.3745 	    0.0000 	   13.0000 	    4.5047
   11.7418 	   36.4765 	    0.0000 	   13.0000 	    5.1167
   11.6197 	   36.5835 	    0.0000 	   13.0000 	    5.7587
   11.9402 	   36.6858 	    0.0000 	   13.0000 	    6.3728
   12.1843 	   36.7902 	    0.0000 	   13.0000 	    6.9978
   12.3980 	   36.8923 	    0.0000 	   13.0000 	    7.6108
   12.6879 	   36.9968 	    0.0000 	   13.0000 	    8.2379
   12.5658 	   37.1092 	    0.0000 	   13.0000 	    8.9119
   12.8405 	   37.2188 	    0.0000 	   13.0000 	    9.5700
   13.1151 	   37.3310 	    0.0000 	   13.0000 	   10.2430
   13.1609 	   37.4408 	    0.0000 	   13.0000 	   10.9020
   13.4203 	   37.5537 	    0.0000 	   13.0000 	   11.5791
   13.5576 	   37.6633 	    0.0000 	   13.0000 	   12.2371
   13.7255 	   37.7767 	    0.0000 	   13.0000 	   12.9171
   14.0002 	   37.8893 	    0.0000 	   13.0000 	   13.5932
   14.1680 	   38.0012 	    0.0000 	   13.0000 	   14.2642
   14.4121 	   38.1083 	    0.0000 	   13.0000 	   14.9073
   14.5800 	   38.2148 	    0.0000 	   13.0000 	   15.5463
   14.9615 	   38.3230 	    0.0000 	   13.0000 	   16.1953
   14.8852 	   38.4338 	    0.0000 	   13.0000 	   16.8604
   14.9004 	   38.5468 	    0.0000 	   13.0000 	   17.5384
   15.1446 	   38.6567 	    0.0000 	   13.0000 	   18.1974
   15.4345 	   38.7710 	    0.0000 	   13.0000 	   18.8835
   15.5413 	   38.8832 	    0.0000 	   13.0000 	   19.5565
   15.8770 	   38.9945 	    0.0000 	   13.0000 	   20.2246
   16.0906 	   39.1097 	    0.0000 	   13.0000 	   20.9156
   16.2432 	   39.2218 	    0.0000 	   13.0000 	   21.5886
   16.2585 	   39.3347 	    0.0000 	   13.0000 	   22.2657
   15.8160 	   39.4460 	    0.0000 	   13.0000 	   22.9337
   15.7702 	   39.5572 	    0.0000 	   13.0000 	   23.6008
   15.7549 	   39.6688 	    0.0000 	   13.0000 	   24.2698
   15.7092 	   39.7773 	    0.0000 	   13.0000 	   24.9208
   15.5871 	   39.8853 	    0.0000 	   13.0000 	   25.5689
   15.4955 	   39.9950 	    0.0000 	   13.0000 	   26.2269
   15.4650 	   40.1098 	    0.0000 	   13.0000 	   26.9159
   15.4650 	   40.2283 	    0.0000 	   13.0000 	   27.6270
   15.3277 	   40.3390 	    0.0000 	   13.0000 	   28.2910
   15.3887 	   40.4478 	    0.0000 	   13.0000 	   28.9441
   15.2361 	   40.5585 	    0.0000 	   13.0000 	   29.6081
   15.3582 	   40.6708 	    0.0000 	   13.0000 	   30.2821
   15.1904 	   40.7873 	    0.0000 	   13.0000 	   30.9812
   15.1598 	   40.9113 	    0.0000 	   13.0000 	   31.7252
   15.0683 	   41.0238 	    0.0000 	   13.0000 	   32.4003
   15.0683 	   41.1367 	    0.0000 	   13.0000 	   33.0773
   15.0225 	   41.2475 	    0.0000 	   13.0000 	   33.7423
   15.0988 	   41.3592 	    0.0000 	   13.0000 	   34.4124
   14.9157 	   41.4697 	    0.0000 	   13.0000 	   35.0754
   15.0683 	   41.5778 	    0.0000 	   13.0000 	   35.7244
   14.9157 	   41.6887 	    0.0000 	   13.0000 	   36.3895
   14.8852 	   41.8082 	    0.0000 	   13.0000 	   37.1065
   14.9767 	   41.9197 	    0.0000 	   13.0000 	   37.7756
   14.9310 	   42.0323 	    0.0000 	   13.0000 	   38.4516
   14.8089 	   42.1458 	    0.0000 	   13.0000 	   39.1326
   14.4884 	   42.2603 	    0.0000 	   13.0000 	   39.8197
   14.8241 	   42.3737 	    0.0000 	   13.0000 	   40.4997
   14.7936 	   42.4837 	    0.0000 	   13.0000 	   41.1598
   14.7631 	   42.5997 	    0.0000 	   13.0000 	   41.8548
   14.7784 	   42.7142 	    0.0000 	   13.0000 	   42.5418
   14.8241 	   42.8270 	    0.0000 	   13.0000 	   43.2189
   14.6868 	   42.9403 	    0.0000 	   13.0000 	   43.8989
   14.7021 	   43.0540 	    0.0000 	   13.0000 	   44.5810
   14.7784 	   43.1697 	    0.0000 	   13.0000 	   45.2750
   14.5495 	   43.2810 	    0.0000 	   13.0000 	   45.9430
   14.6868 	   43.3948 	    0.0000 	   13.0000 	   46.6261
   14.5953 	   43.5057 	    0.0000 	   13.0000 	   47.2911
   14.4579 	   43.6178 	    0.0000 	   13.0000 	   47.9641
   14.6868 	   43.7303 	    0.0000 	   13.0000 	   48.6392
   14.5953 	   43.8412 	    0.0000 	   13.0000 	   49.3042
   14.5342 	   43.9523 	    0.0000 	   13.0000 	   49.9713
   14.7173 	   44.0640 	    0.0000 	   13.0000 	   50.6413
   14.5800 	   44.1752 	    0.0000 	   13.0000 	   51.3083
   14.6258 	   44.2867 	    0.0000 	   13.0000 	   51.9774
   14.5495 	   44.3992 	    0.0000 	   13.0000 	   52.6524
   14.5342 	   44.5112 	    0.0000 	   13.0000 	   53.3245
   14.4274 	   44.6248 	    0.0000 	   13.0000 	   54.0065
   14.1527 	   44.7392 	    0.0000 	   13.0000 	   54.6925
   14.4579 	   44.8530 	    0.0000 	   13.0000 	   55.3756
   14.5342 	   44.9692 	    0.0000 	   13.0000 	   56.0726
   14.3969 	   45.0875 	    0.0000 	   13.0000 	   56.7826
   14.4884 	   45.1993 	    0.0000 	   13.0000 	   57.4537
   14.4121 	   45.3155 	    0.0000 	   13.0000 	   58.1507
   14.5342 	   45.4278 	    0.0000 	   13.0000 	   58.8248
   14.1527 	   45.5462 	    0.0000 	   13.0000 	   59.5338
   14.2748 	   45.6613 	    0.0000 	   14.0000 	    0.2248
   14.3816 	   45.7748 	    0.0000 	   14.0000 	    0.9059
   14.4121 	   45.8918 	    0.0000 	   14.0000 	    1.6079
   14.1375 	   46.0075 	    0.0000 	   14.0000 	    2.3020
   14.4884 	   46.1233 	    0.0000 	   14.0000 	    2.9970
   14.3359 	   46.2365 	    0.0000 	   14.0000 	    3.6760
   14.2596 	   46.3513 	    0.0000 	   14.0000 	    4.3651
   14.2290 	   46.4695 	    0.0000 	   14.0000 	    5.0741
   14.3053 	   46.5845 	    0.0000 	   14.0000 	    5.7642
   14.1833 	   46.6985 	    0.0000 	   14.0000 	    6.4482
   14.2290 	   46.8158 	    0.0000 	   14.0000 	    7.1522
   14.1833 	   46.9295 	    0.0000 	   14.0000 	    7.8343
   14.2748 	   47.0468 	    0.0000 	   14.0000 	    8.5383
   14.1833 	   47.1625 	    0.0000 	   14.0000 	    9.2324
   14.2443 	   47.2773 	    0.0000 	   14.0000 	    9.9214
   14.1527 	   47.3922 	    0.0000 	   14.0000 	   10.6104
   14.2290 	   47.5075 	    0.0000 	   14.0000 	   11.3025
   14.1833 	   47.6275 	    0.0000 	   14.0000 	   12.0225
   14.2596 	   47.7428 	    0.0000 	   14.0000 	   12.7146
   14.0917 	   47.8595 	    0.0000 	   14.0000 	   13.4146
   14.1833 	   47.9798 	    0.0000 	   14.0000 	   14.1366
   14.1680 	   48.0995 	    0.0000 	   14.0000 	   14.8547
   14.1985 	   48.2162 	    0.0000 	   14.0000 	   15.5547
   14.1222 	   48.3342 	    0.0000 	   14.0000 	   16.2628
   14.1833 	   48.4503 	    0.0000 	   14.0000 	   16.9588
   14.0764 	   48.5662 	    0.0000 	   14.0000 	   17.6538
   13.9391 	   48.6872 	    0.0000 	   14.0000 	   18.3799
   14.0307 	   48.8037 	    0.0000 	   14.0000 	   19.0789
   14.2443 	   48.9227 	    0.0000 	   14.0000 	   19.7930
   14.1222 	   49.0397 	    0.0000 	   14.0000 	   20.4950
   14.0612 	   49.1562 	    0.0000 	   14.0000 	   21.1940
   14.1680 	   49.2730 	    0.0000 	   14.0000 	   21.8951
   14.0459 	   49.3915 	    0.0000 	   14.0000 	   22.6061
   14.2290 	   49.5097 	    0.0000 	   14.0000 	   23.3152
   14.1375 	   49.6302 	    0.0000 	   14.0000 	   24.0382
   14.0612 	   49.7488 	    0.0000 	   14.0000 	   24.7502
   14.0612 	   49.8675 	    0.0000 	   14.0000 	   25.4623
   14.0459 	   49.9898 	    0.0000 	   14.0000 	   26.1953
   13.9696 	   50.1073 	    0.0000 	   14.0000 	   26.9014
   14.0307 	   50.2263 	    0.0000 	   14.0000 	   27.6154
   14.0002 	   50.3443 	    0.0000 	   14.0000 	   28.3235
   14.0612 	   50.4623 	    0.0000 	   14.0000 	   29.0315
   13.7255 	   50.5817 	    0.0000 	   14.0000 	   29.7475
   13.3593 	   50.7018 	    0.0000 	   14.0000 	   30.4686
   12.6726 	   50.8230 	    0.0000 	   14.0000 	   31.1956
   12.3827 	   50.9417 	    0.0000 	   14.0000 	   31.9077
   12.0165 	   51.0585 	    0.0000 	   14.0000 	   32.6087
   11.4061 	   51.1757 	    0.0000 	   14.0000 	   33.3117
   11.1009 	   51.2932 	    0.0000 	   14.0000 	   34.0158
   10.6889 	   51.4103 	    0.0000 	   14.0000 	   34.7188
   10.4601 	   51.5287 	    0.0000 	   14.0000 	   35.4289
    9.8039 	   51.6492 	    0.0000 	   14.0000 	   36.1519
    9.6208 	   51.7665 	    0.0000 	   14.0000 	   36.8559
    9.5445 	   51.8842 	    0.0000 	   14.0000 	   37.5620
    9.2088 	   52.0018 	    0.0000 	   14.0000 	   38.2680
    8.9342 	   52.1198 	    0.0000 	   14.0000 	   38.9761
    8.7968 	   52.2388 	    0.0000 	   14.0000 	   39.6901
    8.6137 	   52.3613 	    0.0000 	   14.0000 	   40.4251
    8.3238 	   52.4790 	    0.0000 	   14.0000 	   41.1312
    8.3238 	   52.5980 	    0.0000 	   14.0000 	   41.8452
    8.2017 	   52.7167 	    0.0000 	   14.0000 	   42.5573
    7.9423 	   52.8343 	    0.0000 	   14.0000 	   43.2633
    7.9271 	   52.9523 	    0.0000 	   14.0000 	   43.9713
    7.4235 	   53.0727 	    0.0000 	   14.0000 	   44.6934
    7.4540 	   53.1928 	    0.0000 	   14.0000 	   45.4144
    7.2709 	   53.3153 	    0.0000 	   14.0000 	   46.1495
    7.0420 	   53.4367 	    0.0000 	   14.0000 	   46.8775
    7.0115 	   53.5583 	    0.0000 	   14.0000 	   47.6076
    6.8437 	   53.6857 	    0.0000 	   14.0000 	   48.3716
    6.7674 	   53.8098 	    0.0000 	   14.0000 	   49.1166
    6.7674 	   53.9298 	    0.0000 	   14.0000 	   49.8367
    6.6300 	   54.0543 	    0.0000 	   14.0000 	   50.5837
    6.5537 	   54.1747 	    0.0000 	   14.0000 	   51.3058
    6.3554 	   54.2970 	    0.0000 	   14.0000 	   52.0388
    6.4012 	   54.4195 	    0.0000 	   14.0000 	   52.7739
    6.3706 	   54.5432 	    0.0000 	   14.0000 	   53.5159
    6.2333 	   54.6677 	    0.0000 	   14.0000 	   54.2629
    6.1570 	   54.7890 	    0.0000 	   14.0000 	   54.9910
    6.0349 	   54.9093 	    0.0000 	   14.0000 	   55.7130
    5.9434 	   55.0318 	    0.0000 	   14.0000 	   56.4481
    5.7908 	   55.1547 	    0.0000 	   14.0000 	   57.1851
    5.9129 	   55.2815 	    0.0000 	   14.0000 	   57.9461
    5.7145 	   55.4050 	    0.0000 	   14.0000 	   58.6872
    5.6992 	   55.5305 	    0.0000 	   14.0000 	   59.4402
    5.6382 	   55.6575 	    0.0000 	   15.0000 	    0.2023
    5.2873 	   55.7830 	    0.0000 	   15.0000 	    0.9553
    5.5619 	   55.9062 	    0.0000 	   15.0000 	    1.6944
    5.4704 	   56.0340 	    0.0000 	   15.0000 	    2.4614
    5.0278 	   56.1567 	    0.0000 	   15.0000 	    3.1974
    5.3483 	   56.2823 	    0.0000 	   15.0000 	    3.9515
    5.2873 	   56.4110 	    0.0000 	   15.0000 	    4.7235
    5.2415 	   56.5395 	    0.0000 	   15.0000 	    5.4946
    5.1041 	   56.6642 	    0.0000 	   15.0000 	    6.2426
    5.2110 	   56.7893 	    0.0000 	   15.0000 	    6.9937
    5.0126 	   56.9142 	    0.0000 	   15.0000 	    7.7427
    4.9973 	   57.0400 	    0.0000 	   15.0000 	    8.4978
    4.9668 	   57.1622 	    0.0000 	   15.0000 	    9.2298
    5.0584 	   57.2842 	    0.0000 	   15.0000 	    9.9618
    4.8600 	   57.4065 	    0.0000 	   15.0000 	   10.6959
    4.9058 	   57.5313 	    0.0000 	   15.0000 	   11.4449
    4.9058 	   57.6542 	    0.0000 	   15.0000 	   12.1820
    4.7227 	   57.7765 	    0.0000 	   15.0000 	   12.9160
    4.7684 	   57.8992 	    0.0000 	   15.0000 	   13.6520
    4.7837 	   58.0235 	    0.0000 	   15.0000 	   14.3981
    4.6159 	   58.1475 	    0.0000 	   15.0000 	   15.1421
    4.5243 	   58.2738 	    0.0000 	   15.0000 	   15.9002
    4.6464 	   58.3998 	    0.0000 	   15.0000 	   16.6562
    4.4175 	   58.5257 	    0.0000 	   15.0000 	   17.4113
    4.5701 	   58.6508 	    0.0000 	   15.0000 	   18.1623
    4.3870 	   58.7803 	    0.0000 	   15.0000 	   18.9394
    4.3565 	   58.9068 	    0.0000 	   15.0000 	   19.6984
    4.4175 	   59.0343 	    0.0000 	   15.0000 	   20.4634
    4.2802 	   59.1625 	    0.0000 	   15.0000 	   21.2325
    4.2496 	   59.2903 	    0.0000 	   15.0000 	   21.9995
    4.2954 	   59.4180 	    0.0000 	   15.0000 	   22.7656
    4.2039 	   59.5482 	    0.0000 	   15.0000 	   23.5466
    4.1886 	   59.6740 	    0.0000 	   15.0000 	   24.3017
    4.1276 	   59.8005 	    0.0000 	   15.0000 	   25.0607
    4.1581 	   59.9268 	    0.0000 	   15.0000 	   25.8187
    4.1123 	   60.0542 	    0.0000 	   15.0000 	   26.5818
    3.9902 	   60.1812 	    0.0000 	   15.0000 	   27.3438
    4.0818 	   60.3097 	    0.0000 	   15.0000 	   28.1149
    3.9292 	   60.4377 	    0.0000 	   15.0000 	   28.8829
    3.8987 	   60.5728 	    0.0000 	   15.0000 	   29.6940
    3.6545 	   60.6998 	    0.0000 	   15.0000 	   30.4560
    4.0208 	   60.8278 	    0.0000 	   15.0000 	   31.2241
    3.6393 	   60.9580 	    0.0000 	   15.0000 	   32.0051
    3.5019 	   61.0862 	    0.0000 	   15.0000 	   32.7741
    3.7919 	   61.2163 	    0.0000 	   15.0000 	   33.5552
    3.8224 	   61.3458 	    0.0000 	   15.0000 	   34.3322
    3.7308 	   61.4748 	    0.0000 	   15.0000 	   35.1063
    3.6851 	   61.6065 	    0.0000 	   15.0000 	   35.8963
    3.6851 	   61.7353 	    0.0000 	   15.0000 	   36.6694
    3.7766 	   61.8653 	    0.0000 	   15.0000 	   37.4494
    3.7461 	   61.9940 	    0.0000 	   15.0000 	   38.2215
    3.4867 	   62.1235 	    0.0000 	   15.0000 	   38.9985
    3.5630 	   62.2515 	    0.0000 	   15.0000 	   39.7665
    3.5935 	   62.3840 	    0.0000 	   15.0000 	   40.5616
    3.3799 	   62.5125 	    0.0000 	   15.0000 	   41.3326
    3.5019 	   62.6418 	    0.0000 	   15.0000 	   42.1087
    3.3799 	   62.7737 	    0.0000 	   15.0000 	   42.8997
    3.4714 	   62.9038 	    0.0000 	   15.0000 	   43.6808
    3.4409 	   63.0343 	    0.0000 	   15.0000 	   44.4628
    3.3951 	   63.1645 	    0.0000 	   15.0000 	   45.2439
    3.2883 	   63.2933 	    0.0000 	   15.0000 	   46.0169
    3.2273 	   63.4248 	    0.0000 	   15.0000 	   46.8059
    3.3341 	   63.5562 	    0.0000 	   15.0000 	   47.5940
    3.4714 	   63.6897 	    0.0000 	   15.0000 	   48.3950
    3.3188 	   63.8197 	    0.0000 	   15.0000 	   49.1751
    3.2578 	   63.9495 	    0.0000 	   15.0000 	   49.9541
    3.3494 	   64.0832 	    0.0000 	   15.0000 	   50.7562
    3.2425 	   64.2148 	    0.0000 	   15.0000 	   51.5462
    3.2120 	   64.3468 	    0.0000 	   15.0000 	   52.3383
    3.0137 	   64.4798 	    0.0000 	   15.0000 	   53.1363
    3.0442 	   64.6108 	    0.0000 	   15.0000 	   53.9224
    3.0747 	   64.7430 	    0.0000 	   15.0000 	   54.7154
    3.0442 	   64.8750 	    0.0000 	   15.0000 	   55.5074
    3.0289 	   65.0072 	    0.0000 	   15.0000 	   56.3005
    2.7390 	   65.1380 	    0.0000 	   15.0000 	   57.0855
    3.0594 	   65.2698 	    0.0000 	   15.0000 	   57.8766
    2.9984 	   65.4033 	    0.0000 	   15.0000 	   58.6776
    2.9831 	   65.5362 	    0.0000 	   15.0000 	   59.4747
    3.0289 	   65.6707 	    0.0000 	   16.0000 	    0.2817
    2.9526 	   65.8045 	    0.0000 	   16.0000 	    1.0848
    2.6017 	   65.9382 	    0.0000 	   16.0000 	    1.8858
    2.8763 	   66.0733 	    0.0000 	   16.0000 	    2.6969
    2.8305 	   66.2055 	    0.0000 	   16.0000 	    3.4899
    2.7695 	   66.3423 	    0.0000 	   16.0000 	    4.3109
    2.9068 	   66.4763 	    0.0000 	   16.0000 	    5.1150
    2.7390 	   66.6130 	    0.0000 	   16.0000 	    5.9350
    2.7543 	   66.7467 	    0.0000 	   16.0000 	    6.7371
    2.8611 	   66.8802 	    0.0000 	   16.0000 	    7.5381
    2.8611 	   67.0142 	    0.0000 	   16.0000 	    8.3422
    2.7085 	   67.1483 	    0.0000 	   16.0000 	    9.1472
    2.7237 	   67.2823 	    0.0000 	   16.0000 	    9.9513
    2.6780 	   67.4170 	    0.0000 	   16.0000 	   10.7593
    2.6169 	   67.5525 	    0.0000 	   16.0000 	   11.5724
    2.5864 	   67.6862 	    0.0000 	   16.0000 	   12.3744
    2.5101 	   67.8198 	    0.0000 	   16.0000 	   13.1765
    2.6169 	   67.9552 	    0.0000 	   16.0000 	   13.9885
    2.5559 	   68.0900 	    0.0000 	   16.0000 	   14.7975
    2.6780 	   68.2230 	    0.0000 	   16.0000 	   15.5956
    2.7085 	   68.3577 	    0.0000 	   16.0000 	   16.4036
    2.6322 	   68.4938 	    0.0000 	   16.0000 	   17.2207
    2.4186 	   68.6302 	    0.0000 	   16.0000 	   18.0387
    2.5254 	   68.7652 	    0.0000 	   16.0000 	   18.8478
    2.4796 	   68.9030 	    0.0000 	   16.0000 	   19.6748
    2.4338 	   69.0383 	    0.0000 	   16.0000 	   20.4869
    2.4796 	   69.1733 	    0.0000 	   16.0000 	   21.2969
    2.3117 	   69.3103 	    0.0000 	   16.0000 	   22.1190
    2.3575 	   69.4452 	    0.0000 	   16.0000 	   22.9280
    2.0676 	   69.5800 	    0.0000 	   16.0000 	   23.7371
    2.2660 	   69.7172 	    0.0000 	   16.0000 	   24.5601
    2.2202 	   69.8523 	    0.0000 	   16.0000 	   25.3711
    2.3880 	   69.9875 	    0.0000 	   16.0000 	   26.1822
    2.2965 	   70.1270 	    0.0000 	   16.0000 	   27.0192
    2.3423 	   70.2642 	    0.0000 	   16.0000 	   27.8423
    2.2812 	   70.4048 	    0.0000 	   16.0000 	   28.6863
    2.2965 	   70.5442 	    0.0000 	   16.0000 	   29.5224
    2.2354 	   70.6833 	    0.0000 	   16.0000 	   30.3574
    2.1439 	   70.8220 	    0.0000 	   16.0000 	   31.1895
    2.2049 	   70.9635 	    0.0000 	   16.0000 	   32.0385
    2.0829 	   71.1043 	    0.0000 	   16.0000 	   32.8836
    2.0523 	   71.2422 	    0.0000 	   16.0000 	   33.7106
    2.1592 	   71.3812 	    0.0000 	   16.0000 	   34.5447
    2.0218 	   71.5188 	    0.0000 	   16.0000 	   35.3707
    2.0371 	   71.6572 	    0.0000 	   16.0000 	   36.2008
    1.9455 	   71.7992 	    0.0000 	   16.0000 	   37.0518
    1.8387 	   71.9407 	    0.0000 	   16.0000 	   37.9009
    2.0676 	   72.0853 	    0.0000 	   16.0000 	   38.7689
    1.8845 	   72.2242 	    0.0000 	   16.0000 	   39.6020
    1.9913 	   72.3673 	    0.0000 	   16.0000 	   40.4610
    1.8692 	   72.5062 	    0.0000 	   16.0000 	   41.2941
    1.8082 	   72.6465 	    0.0000 	   16.0000 	   42.1361
    1.8387 	   72.7873 	    0.0000 	   16.0000 	   42.9812
    1.5488 	   72.9268 	    0.0000 	   16.0000 	   43.8182
    1.8082 	   73.0648 	    0.0000 	   16.0000 	   44.6463
    1.8997 	   73.2033 	    0.0000 	   16.0000 	   45.4773
    1.8082 	   73.3430 	    0.0000 	   16.0000 	   46.3153
    1.7777 	   73.4813 	    0.0000 	   16.0000 	   47.1454
    1.8387 	   73.6215 	    0.0000 	   16.0000 	   47.9864
    1.7166 	   73.7615 	    0.0000 	   16.0000 	   48.8265
    1.5183 	   73.8998 	    0.0000 	   16.0000 	   49.6565
    1.3809 	   74.0398 	    0.0000 	   16.0000 	   50.4966
    1.6098 	   74.1817 	    0.0000 	   16.0000 	   51.3476
    1.7014 	   74.3262 	    0.0000 	   16.0000 	   52.2147
    1.5488 	   74.4682 	    0.0000 	   16.0000 	   53.0667
    1.7777 	   74.6103 	    0.0000 	   16.0000 	   53.9188
    1.6861 	   74.7522 	    0.0000 	   16.0000 	   54.7698
    1.6403 	   74.8917 	    0.0000 	   16.0000 	   55.6069
    1.5946 	   75.0332 	    0.0000 	   16.0000 	   56.4559
    1.6098 	   75.1747 	    0.0000 	   16.0000 	   57.3050
    1.6098 	   75.3148 	    0.0000 	   16.0000 	   58.1460
    1.5183 	   75.4545 	    0.0000 	   16.0000 	   58.9841
    1.5640 	   75.5950 	    0.0000 	   16.0000 	   59.8271
    1.3352 	   75.7335 	    0.0000 	   17.0000 	    0.6582
    1.5183 	   75.8718 	    0.0000 	   17.0000 	    1.4882
    1.5946 	   76.0132 	    0.0000 	   17.0000 	    2.3363
    1.4725 	   76.1530 	    0.0000 	   17.0000 	    3.1753
    1.2894 	   76.2915 	    0.0000 	   17.0000 	    4.0064
    1.3504 	   76.4322 	    0.0000 	   17.0000 	    4.8504
    1.2741 	   76.5718 	    0.0000 	   17.0000 	    5.6885
    1.3046 	   76.7107 	    0.0000 	   17.0000 	    6.5215
    1.2436 	   76.8500 	    0.0000 	   17.0000 	    7.3576
    1.2894 	   76.9913 	    0.0000 	   17.0000 	    8.2056
    1.2894 	   77.1333 	    0.0000 	   17.0000 	    9.0576
    1.1673 	   77.2770 	    0.0000 	   17.0000 	    9.9197
    1.1673 	   77.4192 	    0.0000 	   17.0000 	   10.7727
    1.1673 	   77.5612 	    0.0000 	   17.0000 	   11.6238
    1.1368 	   77.7073 	    0.0000 	   17.0000 	   12.5008
    1.1063 	   77.8543 	    0.0000 	   17.0000 	   13.3829
    1.3199 	   77.9973 	    0.0000 	   17.0000 	   14.2409
    1.1368 	   78.1442 	    0.0000 	   17.0000 	   15.1220
    1.1673 	   78.2880 	    0.0000 	   17.0000 	   15.9850
    1.0758 	   78.4318 	    0.0000 	   17.0000 	   16.8481
    0.8011 	   78.5758 	    0.0000 	   17.0000 	   17.7121
    1.0300 	   78.7177 	    0.0000 	   17.0000 	   18.5632
    1.0147 	   78.8602 	    0.0000 	   17.0000 	   19.4182
    1.1368 	   79.0070 	    0.0000 	   17.0000 	   20.2993
    0.9384 	   79.1552 	    0.0000 	   17.0000 	   21.1883
    0.8011 	   79.3012 	    0.0000 	   17.0000 	   22.0644
    0.9079 	   79.4470 	    0.0000 	   17.0000 	   22.9394
    0.7858 	   79.5900 	    0.0000 	   17.0000 	   23.7975
    0.8621 	   79.7355 	    0.0000 	   17.0000 	   24.6705
    0.7858 	   79.8800 	    0.0000 	   17.0000 	   25.5376
    1.0147 	   80.0208 	    0.0000 	   17.0000 	   26.3826
    0.7706 	   80.1625 	    0.0000 	   17.0000 	   27.2327
    0.8164 	   80.3038 	    0.0000 	   17.0000 	   28.0807
    0.7401 	   80.4462 	    0.0000 	   17.0000 	   28.9338
    0.2976 	   80.5888 	    0.0000 	   17.0000 	   29.7898
    0.6485 	   80.7308 	    0.0000 	   17.0000 	   30.6419
    0.5722 	   80.8733 	    0.0000 	   17.0000 	   31.4969
    0.6638 	   81.0170 	    0.0000 	   17.0000 	   32.3590
    0.7095 	   81.1590 	    0.0000 	   17.0000 	   33.2110
    0.6943 	   81.3023 	    0.0000 	   17.0000 	   34.0711
    0.6180 	   81.4448 	    0.0000 	   17.0000 	   34.9261
    0.4959 	   81.5880 	    0.0000 	   17.0000 	   35.7852
    0.3738 	   81.7312 	    0.0000 	   17.0000 	   36.6442
    0.3586 	   81.8748 	    0.0000 	   17.0000 	   37.5063
    0.4807 	   82.0187 	    0.0000 	   17.0000 	   38.3693
    0.4196 	   82.1620 	    0.0000 	   17.0000 	   39.2294
    0.4349 	   82.3083 	    0.0000 	   17.0000 	   40.1074
    0.3586 	   82.4583 	    0.0000 	   17.0000 	   41.0075
    0.2976 	   82.6045 	    0.0000 	   17.0000 	   41.8845
    0.3738 	   82.7550 	    0.0000 	   17.0000 	   42.7876
    0.2823 	   82.9063 	    0.0000 	   17.0000 	   43.6956
    0.1755 	   83.0593 	    0.0000 	   17.0000 	   44.6137
    0.3738 	   83.2080 	    0.0000 	   17.0000 	   45.5057
    0.2213 	   83.3607 	    0.0000 	   17.0000 	   46.4208
    0.1144 	   83.5128 	    0.0000 	   17.0000 	   47.3338
    0.0992 	   83.6635 	    0.0000 	   17.0000 	   48.2379
    0.1297 	   83.8107 	    0.0000 	   17.0000 	   49.1209
    0.0687 	   83.9635 	    0.0000 	   17.0000 	   50.0380
    0.0381 	   84.1090 	    0.0000 	   17.0000 	   50.9110
    0.0839 	   84.2538 	    0.0000 	   17.0000 	   51.7801
    0.0381 	   84.3997 	    0.0000 	   17.0000 	   52.6551
    0.2670 	   84.5452 	    0.0000 	   17.0000 	   53.5282
    0.1450 	   84.6135 	    0.0000 	   17.0000 	   53.9382