File: instron/10_grey_1W15L_drag40_spd15_nonstop.txt
Thayer School of Engineering        Instron 4442 Mechanical Testing System
6/28/2018 3:14:42 AM

  Force (N)	Extension (mm)	Not Used	Not Used	Not Used	     Hour	    Minute	    Second
    0.1297 	    0.2543 	    3.0000 	   15.0000 	    1.9641
    0.3281 	    0.3335 	    3.0000 	   15.0000 	    2.2811
    0.1907 	    0.4190 	    3.0000 	   15.0000 	    2.6231
   -0.0076 	    0.5005 	    3.0000 	   15.0000 	    2.9492
   -0.1144 	    0.5935 	    3.0000 	   15.0000 	    3.3212
    0.1907 	    0.6963 	    3.0000 	   15.0000 	    3.7322
    0.1450 	    0.7778 	    3.0000 	   15.0000 	    4.0582
    0.2060 	    0.8423 	    3.0000 	   15.0000 	    4.3162
    0.1602 	    0.9003 	    3.0000 	   15.0000 	    4.5483
   -0.0839 	    0.9548 	    3.0000 	   15.0000 	    4.7663
    0.1144 	    1.0113 	    3.0000 	   15.0000 	    4.9923
    0.1297 	    1.0675 	    3.0000 	   15.0000 	    5.2173
    0.1907 	    1.1190 	    3.0000 	   15.0000 	    5.4233
    0.1144 	    1.1763 	    3.0000 	   15.0000 	    5.6523
    0.2365 	    1.2318 	    3.0000 	   15.0000 	    5.8743
    0.2670 	    1.2803 	    3.0000 	   15.0000 	    6.0683
   -0.0229 	    1.3343 	    3.0000 	   15.0000 	    6.2844
   -0.0076 	    1.3853 	    3.0000 	   15.0000 	    6.4884
    0.1602 	    1.4348 	    3.0000 	   15.0000 	    6.6854
    0.0229 	    1.4888 	    3.0000 	   15.0000 	    6.9014
    0.1907 	    1.5423 	    3.0000 	   15.0000 	    7.1154
    0.2060 	    1.5985 	    3.0000 	   15.0000 	    7.3404
    0.2365 	    1.6493 	    3.0000 	   15.0000 	    7.5434
   -0.0076 	    1.7070 	    3.0000 	   15.0000 	    7.7744
    0.1297 	    1.7635 	    3.0000 	   15.0000 	    8.0004
    0.0534 	    1.8178 	    3.0000 	   15.0000 	    8.2175
    0.2670 	    1.8698 	    3.0000 	   15.0000 	    8.4255
    0.2976 	    1.9188 	    3.0000 	   15.0000 	    8.6215
    0.2213 	    1.9740 	    3.0000 	   15.0000 	    8.8425
   -0.0534 	    2.0273 	    3.0000 	   15.0000 	    9.0555
    0.0839 	    2.0765 	    3.0000 	   15.0000 	    9.2525
    0.2518 	    2.1255 	    3.0000 	   15.0000 	    9.4485
    0.1755 	    2.1725 	    3.0000 	   15.0000 	    9.6365
    0.1144 	    2.2200 	    3.0000 	   15.0000 	    9.8266
    0.1755 	    2.2760 	    3.0000 	   15.0000 	   10.0506
    0.1450 	    2.3265 	    3.0000 	   15.0000 	   10.2526
    0.1907 	    2.3743 	    3.0000 	   15.0000 	   10.4436
    0.1907 	    2.4213 	    3.0000 	   15.0000 	   10.6316
    0.1144 	    2.4725 	    3.0000 	   15.0000 	   10.8366
    0.2213 	    2.5233 	    3.0000 	   15.0000 	   11.0396
    0.1755 	    2.5743 	    3.0000 	   15.0000 	   11.2436
    0.1602 	    2.6243 	    3.0000 	   15.0000 	   11.4436
    0.0381 	    2.6733 	    3.0000 	   15.0000 	   11.6397
    0.2060 	    2.7273 	    3.0000 	   15.0000 	   11.8557
    0.1297 	    2.7853 	    3.0000 	   15.0000 	   12.0877
    0.0992 	    2.8413 	    3.0000 	   15.0000 	   12.3117
    0.0992 	    2.8933 	    3.0000 	   15.0000 	   12.5197
    0.3738 	    2.9445 	    3.0000 	   15.0000 	   12.7247
    0.1297 	    3.0008 	    3.0000 	   15.0000 	   12.9497
    0.1144 	    3.0590 	    3.0000 	   15.0000 	   13.1827
    0.2518 	    3.1140 	    3.0000 	   15.0000 	   13.4028
    0.1755 	    3.1670 	    3.0000 	   15.0000 	   13.6148
    0.2060 	    3.2243 	    3.0000 	   15.0000 	   13.8438
    0.3433 	    3.2793 	    3.0000 	   15.0000 	   14.0638
    0.1755 	    3.3345 	    3.0000 	   15.0000 	   14.2848
    0.1907 	    3.3875 	    3.0000 	   15.0000 	   14.4968
    0.1144 	    3.4395 	    3.0000 	   15.0000 	   14.7048
    0.0687 	    3.4965 	    3.0000 	   15.0000 	   14.9328
    0.1755 	    3.5520 	    3.0000 	   15.0000 	   15.1549
    0.1755 	    3.6078 	    3.0000 	   15.0000 	   15.3779
    0.2823 	    3.6593 	    3.0000 	   15.0000 	   15.5839
    0.3891 	    3.7115 	    3.0000 	   15.0000 	   15.7929
    0.1755 	    3.7685 	    3.0000 	   15.0000 	   16.0209
    0.1907 	    3.8230 	    3.0000 	   15.0000 	   16.2389
    0.3281 	    3.8725 	    3.0000 	   15.0000 	   16.4369
    0.4654 	    3.9240 	    3.0000 	   15.0000 	   16.6429
    0.1907 	    3.9765 	    3.0000 	   15.0000 	   16.8530
    0.2060 	    4.0345 	    3.0000 	   15.0000 	   17.0850
    0.3128 	    4.0913 	    3.0000 	   15.0000 	   17.3120
    0.2060 	    4.1438 	    3.0000 	   15.0000 	   17.5220
    0.2670 	    4.1985 	    3.0000 	   15.0000 	   17.7410
    0.2060 	    4.2558 	    3.0000 	   15.0000 	   17.9700
    0.2518 	    4.3133 	    3.0000 	   15.0000 	   18.2000
    0.1450 	    4.3695 	    3.0000 	   15.0000 	   18.4250
    0.2213 	    4.4233 	    3.0000 	   15.0000 	   18.6401
    0.2060 	    4.4755 	    3.0000 	   15.0000 	   18.8491
    0.2823 	    4.5315 	    3.0000 	   15.0000 	   19.0731
    0.1755 	    4.5895 	    3.0000 	   15.0000 	   19.3051
    0.2365 	    4.6450 	    3.0000 	   15.0000 	   19.5271
    0.3433 	    4.6958 	    3.0000 	   15.0000 	   19.7301
    0.2518 	    4.7553 	    3.0000 	   15.0000 	   19.9681
    0.3128 	    4.8145 	    3.0000 	   15.0000 	   20.2051
    0.4044 	    4.8718 	    3.0000 	   15.0000 	   20.4342
    0.2823 	    4.9258 	    3.0000 	   15.0000 	   20.6502
    0.2518 	    4.9845 	    3.0000 	   15.0000 	   20.8852
    0.2823 	    5.0425 	    3.0000 	   15.0000 	   21.1172
    0.4349 	    5.1008 	    3.0000 	   15.0000 	   21.3502
    0.2976 	    5.1563 	    3.0000 	   15.0000 	   21.5722
    0.2518 	    5.2108 	    3.0000 	   15.0000 	   21.7902
    0.3586 	    5.2720 	    3.0000 	   15.0000 	   22.0353
    0.4044 	    5.3293 	    3.0000 	   15.0000 	   22.2643
    0.3738 	    5.3860 	    3.0000 	   15.0000 	   22.4913
    0.4196 	    5.4395 	    3.0000 	   15.0000 	   22.7053
    0.3891 	    5.4980 	    3.0000 	   15.0000 	   22.9393
    0.4044 	    5.5570 	    3.0000 	   15.0000 	   23.1753
    0.3433 	    5.6133 	    3.0000 	   15.0000 	   23.4003
    0.4196 	    5.6670 	    3.0000 	   15.0000 	   23.6153
    0.5112 	    5.7255 	    3.0000 	   15.0000 	   23.8494
    0.4654 	    5.7833 	    3.0000 	   15.0000 	   24.0794
    0.4501 	    5.8435 	    3.0000 	   15.0000 	   24.3204
    0.4959 	    5.8993 	    3.0000 	   15.0000 	   24.5434
    0.5875 	    5.9553 	    3.0000 	   15.0000 	   24.7674
    0.4196 	    6.0123 	    3.0000 	   15.0000 	   24.9954
    0.5417 	    6.0720 	    3.0000 	   15.0000 	   25.2344
    0.2213 	    6.1325 	    3.0000 	   15.0000 	   25.4764
    0.6485 	    6.1873 	    3.0000 	   15.0000 	   25.6955
    0.6943 	    6.2483 	    3.0000 	   15.0000 	   25.9395
    0.5722 	    6.3045 	    3.0000 	   15.0000 	   26.1645
    0.5112 	    6.3640 	    3.0000 	   15.0000 	   26.4025
    0.6943 	    6.4213 	    3.0000 	   15.0000 	   26.6315
    0.6485 	    6.4815 	    3.0000 	   15.0000 	   26.8725
    0.5570 	    6.5398 	    3.0000 	   15.0000 	   27.1055
    0.6790 	    6.5958 	    3.0000 	   15.0000 	   27.3296
    0.6790 	    6.6540 	    3.0000 	   15.0000 	   27.5626
    0.6180 	    6.7093 	    3.0000 	   15.0000 	   27.7836
    0.5112 	    6.7703 	    3.0000 	   15.0000 	   28.0276
    0.7095 	    6.8273 	    3.0000 	   15.0000 	   28.2556
    0.5264 	    6.8828 	    3.0000 	   15.0000 	   28.4776
    0.5570 	    6.9365 	    3.0000 	   15.0000 	   28.6926
    0.4349 	    6.9903 	    3.0000 	   15.0000 	   28.9076
    0.6638 	    7.0443 	    3.0000 	   15.0000 	   29.1237
    0.5417 	    7.0988 	    3.0000 	   15.0000 	   29.3417
    0.6638 	    7.1538 	    3.0000 	   15.0000 	   29.5617
    0.6638 	    7.2108 	    3.0000 	   15.0000 	   29.7897
    0.7095 	    7.2728 	    3.0000 	   15.0000 	   30.0377
    0.6332 	    7.3355 	    3.0000 	   15.0000 	   30.2887
    0.5570 	    7.3913 	    3.0000 	   15.0000 	   30.5117
    0.6332 	    7.4460 	    3.0000 	   15.0000 	   30.7307
    0.8164 	    7.5045 	    3.0000 	   15.0000 	   30.9648
    0.6332 	    7.5663 	    3.0000 	   15.0000 	   31.2118
    0.7401 	    7.6258 	    3.0000 	   15.0000 	   31.4498
    0.6943 	    7.6800 	    3.0000 	   15.0000 	   31.6668
    0.6943 	    7.7353 	    3.0000 	   15.0000 	   31.8878
    0.7401 	    7.7908 	    3.0000 	   15.0000 	   32.1098
    0.8469 	    7.8525 	    3.0000 	   15.0000 	   32.3568
    0.6943 	    7.9130 	    3.0000 	   15.0000 	   32.5989
    0.7553 	    7.9730 	    3.0000 	   15.0000 	   32.8389
    0.7553 	    8.0338 	    3.0000 	   15.0000 	   33.0819
    0.6638 	    8.0923 	    3.0000 	   15.0000 	   33.3159
    0.8011 	    8.1510 	    3.0000 	   15.0000 	   33.5509
    0.6943 	    8.2073 	    3.0000 	   15.0000 	   33.7759
    0.7858 	    8.2703 	    3.0000 	   15.0000 	   34.0279
    0.7401 	    8.3305 	    3.0000 	   15.0000 	   34.2690
    0.8621 	    8.3895 	    3.0000 	   15.0000 	   34.5050
    0.7095 	    8.4460 	    3.0000 	   15.0000 	   34.7310
    0.8469 	    8.5052 	    3.0000 	   15.0000 	   34.9680
    0.7553 	    8.5673 	    3.0000 	   15.0000 	   35.2160
    0.6790 	    8.6243 	    3.0000 	   15.0000 	   35.4440
    0.9384 	    8.6805 	    3.0000 	   15.0000 	   35.6690
    0.7248 	    8.7348 	    3.0000 	   15.0000 	   35.8860
    0.8011 	    8.7900 	    3.0000 	   15.0000 	   36.1071
    0.9079 	    8.8525 	    3.0000 	   15.0000 	   36.3571
    0.8927 	    8.9093 	    3.0000 	   15.0000 	   36.5841
    0.8774 	    8.9698 	    3.0000 	   15.0000 	   36.8261
    0.9232 	    9.0368 	    3.0000 	   15.0000 	   37.0941
    0.8774 	    9.1048 	    3.0000 	   15.0000 	   37.3661
    0.9232 	    9.1640 	    3.0000 	   15.0000 	   37.6031
    0.8927 	    9.2228 	    3.0000 	   15.0000 	   37.8382
    0.8927 	    9.2808 	    3.0000 	   15.0000 	   38.0702
    0.8621 	    9.3373 	    3.0000 	   15.0000 	   38.2962
    0.9689 	    9.3965 	    3.0000 	   15.0000 	   38.5332
    0.9232 	    9.4565 	    3.0000 	   15.0000 	   38.7732
    0.8927 	    9.5203 	    3.0000 	   15.0000 	   39.0282
    1.0147 	    9.5833 	    3.0000 	   15.0000 	   39.2802
    1.0147 	    9.6470 	    3.0000 	   15.0000 	   39.5353
    0.8927 	    9.7063 	    3.0000 	   15.0000 	   39.7723
    1.1063 	    9.7640 	    3.0000 	   15.0000 	   40.0033
    0.9537 	    9.8278 	    3.0000 	   15.0000 	   40.2583
    1.1215 	    9.8845 	    3.0000 	   15.0000 	   40.4853
    1.0452 	    9.9420 	    3.0000 	   15.0000 	   40.7153
    0.9232 	   10.0005 	    3.0000 	   15.0000 	   40.9493
    0.9842 	   10.0640 	    3.0000 	   15.0000 	   41.2033
    0.9232 	   10.1235 	    3.0000 	   15.0000 	   41.4414
    0.9384 	   10.1810 	    3.0000 	   15.0000 	   41.6704
    0.9232 	   10.2385 	    3.0000 	   15.0000 	   41.9004
    0.8621 	   10.3000 	    3.0000 	   15.0000 	   42.1464
    1.0605 	   10.3650 	    3.0000 	   15.0000 	   42.4064
    1.0910 	   10.4268 	    3.0000 	   15.0000 	   42.6534
    1.0605 	   10.4865 	    3.0000 	   15.0000 	   42.8924
    0.9842 	   10.5470 	    3.0000 	   15.0000 	   43.1345
    1.0605 	   10.6118 	    3.0000 	   15.0000 	   43.3935
    1.2284 	   10.6728 	    3.0000 	   15.0000 	   43.6375
    1.1521 	   10.7308 	    3.0000 	   15.0000 	   43.8695
    1.0147 	   10.7905 	    3.0000 	   15.0000 	   44.1085
    1.1826 	   10.8503 	    3.0000 	   15.0000 	   44.3475
    1.0452 	   10.9103 	    3.0000 	   15.0000 	   44.5875
    0.9995 	   10.9693 	    3.0000 	   15.0000 	   44.8236
    0.9842 	   11.0285 	    3.0000 	   15.0000 	   45.0606
    1.0452 	   11.0863 	    3.0000 	   15.0000 	   45.2916
    0.9384 	   11.1448 	    3.0000 	   15.0000 	   45.5256
    0.7706 	   11.2043 	    3.0000 	   15.0000 	   45.7636
    1.1215 	   11.2668 	    3.0000 	   15.0000 	   46.0136
    1.0147 	   11.3280 	    3.0000 	   15.0000 	   46.2586
    0.9384 	   11.3855 	    3.0000 	   15.0000 	   46.4887
    1.1826 	   11.4465 	    3.0000 	   15.0000 	   46.7327
    1.2741 	   11.5075 	    3.0000 	   15.0000 	   46.9767
    1.0758 	   11.5708 	    3.0000 	   15.0000 	   47.2297
    1.2131 	   11.6360 	    3.0000 	   15.0000 	   47.4907
    1.1215 	   11.6983 	    3.0000 	   15.0000 	   47.7397
    1.1063 	   11.7588 	    3.0000 	   15.0000 	   47.9817
    1.1063 	   11.8258 	    3.0000 	   15.0000 	   48.2498
    1.1215 	   11.8888 	    3.0000 	   15.0000 	   48.5018
    1.1673 	   11.9535 	    3.0000 	   15.0000 	   48.7608
    1.1978 	   12.0175 	    3.0000 	   15.0000 	   49.0168
    1.1368 	   12.0783 	    3.0000 	   15.0000 	   49.2598
    1.1673 	   12.1413 	    3.0000 	   15.0000 	   49.5118
    1.1368 	   12.2058 	    3.0000 	   15.0000 	   49.7698
    1.2284 	   12.2675 	    3.0000 	   15.0000 	   50.0169
    1.3199 	   12.3305 	    3.0000 	   15.0000 	   50.2689
    1.1063 	   12.3913 	    3.0000 	   15.0000 	   50.5119
    1.1215 	   12.4580 	    3.0000 	   15.0000 	   50.7789
    1.0605 	   12.5203 	    3.0000 	   15.0000 	   51.0279
    1.3046 	   12.5823 	    3.0000 	   15.0000 	   51.2759
    1.2436 	   12.6418 	    3.0000 	   15.0000 	   51.5139
    1.2131 	   12.7073 	    3.0000 	   15.0000 	   51.7760
    1.2436 	   12.7703 	    3.0000 	   15.0000 	   52.0280
    1.1215 	   12.8335 	    3.0000 	   15.0000 	   52.2810
    1.2741 	   12.8960 	    3.0000 	   15.0000 	   52.5310
    1.3657 	   12.9618 	    3.0000 	   15.0000 	   52.7940
    1.0910 	   13.0245 	    3.0000 	   15.0000 	   53.0450
    1.1826 	   13.0853 	    3.0000 	   15.0000 	   53.2880
    1.0758 	   13.1488 	    3.0000 	   15.0000 	   53.5421
    1.3657 	   13.2130 	    3.0000 	   15.0000 	   53.7991
    1.3962 	   13.2765 	    3.0000 	   15.0000 	   54.0531
    1.2741 	   13.3378 	    3.0000 	   15.0000 	   54.2981
    1.2131 	   13.4008 	    3.0000 	   15.0000 	   54.5501
    1.2131 	   13.4640 	    3.0000 	   15.0000 	   54.8031
    1.4115 	   13.5275 	    3.0000 	   15.0000 	   55.0571
    1.3199 	   13.5895 	    3.0000 	   15.0000 	   55.3052
    1.3657 	   13.6528 	    3.0000 	   15.0000 	   55.5582
    0.9995 	   13.7175 	    3.0000 	   15.0000 	   55.8172
    1.4878 	   13.7813 	    3.0000 	   15.0000 	   56.0722
    1.2741 	   13.8433 	    3.0000 	   15.0000 	   56.3202
    1.2894 	   13.9050 	    3.0000 	   15.0000 	   56.5672
    1.5030 	   13.9713 	    3.0000 	   15.0000 	   56.8322
    1.4420 	   14.0358 	    3.0000 	   15.0000 	   57.0903
    1.2741 	   14.0995 	    3.0000 	   15.0000 	   57.3453
    1.3199 	   14.1640 	    3.0000 	   15.0000 	   57.6033
    1.3657 	   14.2303 	    3.0000 	   15.0000 	   57.8683
    1.3352 	   14.2933 	    3.0000 	   15.0000 	   58.1203
    1.4267 	   14.3570 	    3.0000 	   15.0000 	   58.3753
    1.3657 	   14.4218 	    3.0000 	   15.0000 	   58.6343
    1.4267 	   14.4883 	    3.0000 	   15.0000 	   58.9004
    1.3504 	   14.5513 	    3.0000 	   15.0000 	   59.1514
    1.3962 	   14.6155 	    3.0000 	   15.0000 	   59.4084
    1.4420 	   14.6798 	    3.0000 	   15.0000 	   59.6654
    1.4267 	   14.7453 	    3.0000 	   15.0000 	   59.9274
    1.0452 	   14.8080 	    3.0000 	   16.0000 	    0.1784
    1.3199 	   14.8723 	    3.0000 	   16.0000 	    0.4354
    1.3962 	   14.9395 	    3.0000 	   16.0000 	    0.7045
    1.4878 	   15.0070 	    3.0000 	   16.0000 	    0.9745
    1.5488 	   15.0745 	    3.0000 	   16.0000 	    1.2445
    1.3809 	   15.1388 	    3.0000 	   16.0000 	    1.5015
    1.4572 	   15.2063 	    3.0000 	   16.0000 	    1.7715
    1.4420 	   15.2683 	    3.0000 	   16.0000 	    2.0195
    1.5793 	   15.3330 	    3.0000 	   16.0000 	    2.2786
    1.2131 	   15.3985 	    3.0000 	   16.0000 	    2.5406
    1.4878 	   15.4685 	    3.0000 	   16.0000 	    2.8206
    1.4115 	   15.5345 	    3.0000 	   16.0000 	    3.0846
    1.4267 	   15.5998 	    3.0000 	   16.0000 	    3.3456
    1.5030 	   15.6655 	    3.0000 	   16.0000 	    3.6086
    1.5335 	   15.7355 	    3.0000 	   16.0000 	    3.8886
    1.4725 	   15.7988 	    3.0000 	   16.0000 	    4.1417
    1.5946 	   15.8633 	    3.0000 	   16.0000 	    4.3997
    1.4572 	   15.9308 	    3.0000 	   16.0000 	    4.6697
    1.4878 	   15.9983 	    3.0000 	   16.0000 	    4.9397
    1.5030 	   16.0618 	    3.0000 	   16.0000 	    5.1937
    1.4878 	   16.1270 	    3.0000 	   16.0000 	    5.4547
    1.5183 	   16.1947 	    3.0000 	   16.0000 	    5.7257
    1.4725 	   16.2608 	    3.0000 	   16.0000 	    5.9898
    1.3809 	   16.3238 	    3.0000 	   16.0000 	    6.2418
    1.6709 	   16.3898 	    3.0000 	   16.0000 	    6.5058
    1.6098 	   16.4583 	    3.0000 	   16.0000 	    6.7798
    1.5335 	   16.5238 	    3.0000 	   16.0000 	    7.0418
    1.5030 	   16.5888 	    3.0000 	   16.0000 	    7.3018
    1.5946 	   16.6548 	    3.0000 	   16.0000 	    7.5659
    1.6861 	   16.7230 	    3.0000 	   16.0000 	    7.8389
    1.4725 	   16.7888 	    3.0000 	   16.0000 	    8.1019
    1.5183 	   16.8535 	    3.0000 	   16.0000 	    8.3609
    1.6709 	   16.9220 	    3.0000 	   16.0000 	    8.6349
    1.7319 	   16.9893 	    3.0000 	   16.0000 	    8.9039
    1.8692 	   17.0550 	    3.0000 	   16.0000 	    9.1669
    1.6556 	   17.1213 	    3.0000 	   16.0000 	    9.4320
    1.5793 	   17.1900 	    3.0000 	   16.0000 	    9.7070
    1.7319 	   17.2585 	    3.0000 	   16.0000 	    9.9810
    1.5640 	   17.3240 	    3.0000 	   16.0000 	   10.2430
    1.5793 	   17.3903 	    3.0000 	   16.0000 	   10.5080
    1.5946 	   17.4608 	    3.0000 	   16.0000 	   10.7900
    1.6556 	   17.5263 	    3.0000 	   16.0000 	   11.0521
    1.7166 	   17.5915 	    3.0000 	   16.0000 	   11.3131
    1.7166 	   17.6580 	    3.0000 	   16.0000 	   11.5791
    1.3046 	   17.7285 	    3.0000 	   16.0000 	   11.8611
    1.3657 	   17.7938 	    3.0000 	   16.0000 	   12.1221
    1.8540 	   17.8593 	    3.0000 	   16.0000 	   12.3841
    1.6403 	   17.9285 	    3.0000 	   16.0000 	   12.6611
    1.7777 	   17.9948 	    3.0000 	   16.0000 	   12.9262
    1.7777 	   18.0635 	    3.0000 	   16.0000 	   13.2012
    1.7319 	   18.1303 	    3.0000 	   16.0000 	   13.4682
    1.7929 	   18.2023 	    3.0000 	   16.0000 	   13.7562
    1.6861 	   18.2673 	    3.0000 	   16.0000 	   14.0162
    1.6251 	   18.3345 	    3.0000 	   16.0000 	   14.2852
    1.6709 	   18.4005 	    3.0000 	   16.0000 	   14.5493
    1.7014 	   18.4753 	    3.0000 	   16.0000 	   14.8483
    1.7777 	   18.5438 	    3.0000 	   16.0000 	   15.1223
    1.7929 	   18.6100 	    3.0000 	   16.0000 	   15.3873
    1.7166 	   18.6783 	    3.0000 	   16.0000 	   15.6603
    1.7929 	   18.7483 	    3.0000 	   16.0000 	   15.9403
    1.7166 	   18.8148 	    3.0000 	   16.0000 	   16.2063
    1.9608 	   18.8813 	    3.0000 	   16.0000 	   16.4724
    1.5946 	   18.9520 	    3.0000 	   16.0000 	   16.7544
    1.7624 	   19.0195 	    3.0000 	   16.0000 	   17.0244
    1.9455 	   19.0855 	    3.0000 	   16.0000 	   17.2884
    1.7166 	   19.1538 	    3.0000 	   16.0000 	   17.5614
    1.7166 	   19.2283 	    3.0000 	   16.0000 	   17.8594
    1.7472 	   19.2938 	    3.0000 	   16.0000 	   18.1215
    1.7472 	   19.3615 	    3.0000 	   16.0000 	   18.3925
    1.8387 	   19.4330 	    3.0000 	   16.0000 	   18.6785
    1.7624 	   19.5025 	    3.0000 	   16.0000 	   18.9565
    1.8692 	   19.5700 	    3.0000 	   16.0000 	   19.2265
    1.8235 	   19.6385 	    3.0000 	   16.0000 	   19.5005
    1.7014 	   19.7120 	    3.0000 	   16.0000 	   19.7946
    1.9608 	   19.7770 	    3.0000 	   16.0000 	   20.0546
    1.8235 	   19.8437 	    3.0000 	   16.0000 	   20.3216
    1.9608 	   19.9133 	    3.0000 	   16.0000 	   20.5996
    1.8082 	   19.9833 	    3.0000 	   16.0000 	   20.8796
    1.8235 	   20.0510 	    3.0000 	   16.0000 	   21.1506
    1.9608 	   20.1193 	    3.0000 	   16.0000 	   21.4236
    1.7624 	   20.1910 	    3.0000 	   16.0000 	   21.7107
    1.8082 	   20.2613 	    3.0000 	   16.0000 	   21.9917
    1.9608 	   20.3295 	    3.0000 	   16.0000 	   22.2647
    1.9303 	   20.3975 	    3.0000 	   16.0000 	   22.5367
    1.8540 	   20.4708 	    3.0000 	   16.0000 	   22.8297
    1.9150 	   20.5383 	    3.0000 	   16.0000 	   23.0997
    1.9455 	   20.6065 	    3.0000 	   16.0000 	   23.3728
    1.8845 	   20.6763 	    3.0000 	   16.0000 	   23.6518
    1.9455 	   20.7503 	    3.0000 	   16.0000 	   23.9478
    2.0218 	   20.8173 	    3.0000 	   16.0000 	   24.2158
    1.8235 	   20.8850 	    3.0000 	   16.0000 	   24.4868
    1.8540 	   20.9565 	    3.0000 	   16.0000 	   24.7728
    2.1286 	   21.0278 	    3.0000 	   16.0000 	   25.0579
    2.0829 	   21.0965 	    3.0000 	   16.0000 	   25.3329
    2.1439 	   21.1675 	    3.0000 	   16.0000 	   25.6169
    1.9913 	   21.2388 	    3.0000 	   16.0000 	   25.9019
    1.9913 	   21.3075 	    3.0000 	   16.0000 	   26.1769
    2.2049 	   21.3755 	    3.0000 	   16.0000 	   26.4489
    2.1286 	   21.4493 	    3.0000 	   16.0000 	   26.7440
    1.9608 	   21.5175 	    3.0000 	   16.0000 	   27.0170
    2.0523 	   21.5875 	    3.0000 	   16.0000 	   27.2970
    2.0676 	   21.6558 	    3.0000 	   16.0000 	   27.5700
    2.0676 	   21.7308 	    3.0000 	   16.0000 	   27.8700
    2.0371 	   21.7980 	    3.0000 	   16.0000 	   28.1380
    2.0829 	   21.8680 	    3.0000 	   16.0000 	   28.4190
    2.1134 	   21.9398 	    3.0000 	   16.0000 	   28.7061
    1.9303 	   22.0113 	    3.0000 	   16.0000 	   28.9921
    2.0829 	   22.0803 	    3.0000 	   16.0000 	   29.2681
    2.1897 	   22.1513 	    3.0000 	   16.0000 	   29.5521
    2.0523 	   22.2258 	    3.0000 	   16.0000 	   29.8501
    2.1286 	   22.2940 	    3.0000 	   16.0000 	   30.1231
    2.0218 	   22.3623 	    3.0000 	   16.0000 	   30.3962
    2.0676 	   22.4350 	    3.0000 	   16.0000 	   30.6872
    2.0829 	   22.5070 	    3.0000 	   16.0000 	   30.9752
    2.2049 	   22.5768 	    3.0000 	   16.0000 	   31.2542
    2.1592 	   22.6463 	    3.0000 	   16.0000 	   31.5322
    2.1744 	   22.7205 	    3.0000 	   16.0000 	   31.8292
    2.3117 	   22.7920 	    3.0000 	   16.0000 	   32.1153
    2.1897 	   22.8633 	    3.0000 	   16.0000 	   32.4003
    2.1592 	   22.9375 	    3.0000 	   16.0000 	   32.6973
    1.9760 	   23.0095 	    3.0000 	   16.0000 	   32.9853
    1.9455 	   23.0813 	    3.0000 	   16.0000 	   33.2723
    1.9455 	   23.1500 	    3.0000 	   16.0000 	   33.5473
    2.2354 	   23.2270 	    3.0000 	   16.0000 	   33.8554
    1.9150 	   23.2955 	    3.0000 	   16.0000 	   34.1284
    2.2812 	   23.3683 	    3.0000 	   16.0000 	   34.4194
    2.1439 	   23.4400 	    3.0000 	   16.0000 	   34.7064
    1.8997 	   23.5138 	    3.0000 	   16.0000 	   35.0014
    1.9913 	   23.5838 	    3.0000 	   16.0000 	   35.2814
    2.2812 	   23.6545 	    3.0000 	   16.0000 	   35.5645
    2.2507 	   23.7298 	    3.0000 	   16.0000 	   35.8655
    2.3117 	   23.8035 	    3.0000 	   16.0000 	   36.1605
    2.4338 	   23.8785 	    3.0000 	   16.0000 	   36.4605
    2.1897 	   23.9525 	    3.0000 	   16.0000 	   36.7565
    2.1897 	   24.0263 	    3.0000 	   16.0000 	   37.0515
    2.2202 	   24.0958 	    3.0000 	   16.0000 	   37.3296
    2.4948 	   24.1675 	    3.0000 	   16.0000 	   37.6166
    2.3728 	   24.2425 	    3.0000 	   16.0000 	   37.9166
    2.3423 	   24.3158 	    3.0000 	   16.0000 	   38.2096
    2.3270 	   24.3883 	    3.0000 	   16.0000 	   38.4996
    2.3117 	   24.4643 	    3.0000 	   16.0000 	   38.8036
    2.3423 	   24.5345 	    3.0000 	   16.0000 	   39.0847
    2.4186 	   24.6058 	    3.0000 	   16.0000 	   39.3697
    2.3575 	   24.6773 	    3.0000 	   16.0000 	   39.6557
    2.0371 	   24.7528 	    3.0000 	   16.0000 	   39.9577
    2.3575 	   24.8230 	    3.0000 	   16.0000 	   40.2387
    2.4033 	   24.8948 	    3.0000 	   16.0000 	   40.5257
    2.2965 	   24.9705 	    3.0000 	   16.0000 	   40.8288
    2.4338 	   25.0420 	    3.0000 	   16.0000 	   41.1148
    2.4948 	   25.1155 	    3.0000 	   16.0000 	   41.4088
    2.3423 	   25.1888 	    3.0000 	   16.0000 	   41.7018
    2.5559 	   25.2643 	    3.0000 	   16.0000 	   42.0038
    2.3880 	   25.3345 	    3.0000 	   16.0000 	   42.2848
    2.5559 	   25.4075 	    3.0000 	   16.0000 	   42.5769
    2.4796 	   25.4828 	    3.0000 	   16.0000 	   42.8779
    2.3423 	   25.5558 	    3.0000 	   16.0000 	   43.1699
    2.5711 	   25.6260 	    3.0000 	   16.0000 	   43.4509
    2.4186 	   25.7023 	    3.0000 	   16.0000 	   43.7559
    2.1439 	   25.7760 	    3.0000 	   16.0000 	   44.0509
    2.4796 	   25.8488 	    3.0000 	   16.0000 	   44.3420
    2.5101 	   25.9220 	    3.0000 	   16.0000 	   44.6350
    2.3728 	   25.9970 	    3.0000 	   16.0000 	   44.9350
    2.3880 	   26.0718 	    3.0000 	   16.0000 	   45.2340
    2.5101 	   26.1448 	    3.0000 	   16.0000 	   45.5260
    2.4643 	   26.2225 	    3.0000 	   16.0000 	   45.8370
    2.6322 	   26.2945 	    3.0000 	   16.0000 	   46.1251
    2.4491 	   26.3678 	    3.0000 	   16.0000 	   46.4181
    2.6017 	   26.4418 	    3.0000 	   16.0000 	   46.7141
    2.5711 	   26.5180 	    3.0000 	   16.0000 	   47.0191
    2.4643 	   26.5913 	    3.0000 	   16.0000 	   47.3121
    2.5254 	   26.6645 	    3.0000 	   16.0000 	   47.6051
    2.5559 	   26.7413 	    3.0000 	   16.0000 	   47.9122
    2.4796 	   26.8158 	    3.0000 	   16.0000 	   48.2102
    2.6322 	   26.8903 	    3.0000 	   16.0000 	   48.5082
    2.5864 	   26.9655 	    3.0000 	   16.0000 	   48.8092
    2.5406 	   27.0398 	    3.0000 	   16.0000 	   49.1062
    2.4948 	   27.1115 	    3.0000 	   16.0000 	   49.3932
    2.6932 	   27.1883 	    3.0000 	   16.0000 	   49.7003
    2.6169 	   27.2628 	    3.0000 	   16.0000 	   49.9983
    2.5864 	   27.3368 	    3.0000 	   16.0000 	   50.2943
    2.9831 	   27.4103 	    3.0000 	   16.0000 	   50.5883
    2.6017 	   27.4870 	    3.0000 	   16.0000 	   50.8953
    2.7237 	   27.5610 	    3.0000 	   16.0000 	   51.1913
    2.7390 	   27.6345 	    3.0000 	   16.0000 	   51.4844
    2.3880 	   27.7125 	    3.0000 	   16.0000 	   51.7964
    2.6627 	   27.7863 	    3.0000 	   16.0000 	   52.0914
    2.8305 	   27.8603 	    3.0000 	   16.0000 	   52.3874
    2.6780 	   27.9358 	    3.0000 	   16.0000 	   52.6894
    2.8000 	   28.0125 	    3.0000 	   16.0000 	   52.9965
    2.7695 	   28.0868 	    3.0000 	   16.0000 	   53.2935
    2.6322 	   28.1620 	    3.0000 	   16.0000 	   53.5945
    2.8153 	   28.2405 	    3.0000 	   16.0000 	   53.9085
    2.7237 	   28.3150 	    3.0000 	   16.0000 	   54.2065
    2.7695 	   28.3900 	    3.0000 	   16.0000 	   54.5065
    2.7085 	   28.4665 	    3.0000 	   16.0000 	   54.8126
    2.8458 	   28.5425 	    3.0000 	   16.0000 	   55.1166
    2.6627 	   28.6183 	    3.0000 	   16.0000 	   55.4196
    2.7543 	   28.6978 	    3.0000 	   16.0000 	   55.7376
    2.7543 	   28.7735 	    3.0000 	   16.0000 	   56.0406
    2.9984 	   28.8475 	    3.0000 	   16.0000 	   56.3366
    2.9526 	   28.9245 	    3.0000 	   16.0000 	   56.6447
    3.0442 	   29.0040 	    3.0000 	   16.0000 	   56.9627
    2.9374 	   29.0808 	    3.0000 	   16.0000 	   57.2697
    2.8763 	   29.1548 	    3.0000 	   16.0000 	   57.5657
    2.9068 	   29.2358 	    3.0000 	   16.0000 	   57.8897
    2.8305 	   29.3098 	    3.0000 	   16.0000 	   58.1857
    2.9221 	   29.3868 	    3.0000 	   16.0000 	   58.4938
    2.9679 	   29.4655 	    3.0000 	   16.0000 	   58.8088
    2.9068 	   29.5380 	    3.0000 	   16.0000 	   59.0988
    2.9068 	   29.6138 	    3.0000 	   16.0000 	   59.4018
    2.9831 	   29.6920 	    3.0000 	   16.0000 	   59.7148
    2.7237 	   29.7698 	    3.0000 	   17.0000 	    0.0259
    3.0289 	   29.8428 	    3.0000 	   17.0000 	    0.3179
    2.9526 	   29.9190 	    3.0000 	   17.0000 	    0.6229
    2.8916 	   29.9960 	    3.0000 	   17.0000 	    0.9309
    2.9374 	   30.0715 	    3.0000 	   17.0000 	    1.2329
    3.0747 	   30.1475 	    3.0000 	   17.0000 	    1.5369
    3.0900 	   30.2263 	    3.0000 	   17.0000 	    1.8520
    3.0900 	   30.3018 	    3.0000 	   17.0000 	    2.1540
    3.0442 	   30.3750 	    3.0000 	   17.0000 	    2.4470
    3.0747 	   30.4553 	    3.0000 	   17.0000 	    2.7680
    3.0442 	   30.5293 	    3.0000 	   17.0000 	    3.0640
    3.0442 	   30.6028 	    3.0000 	   17.0000 	    3.3580
    3.0442 	   30.6785 	    3.0000 	   17.0000 	    3.6611
    2.8916 	   30.7568 	    3.0000 	   17.0000 	    3.9741
    2.8763 	   30.8335 	    3.0000 	   17.0000 	    4.2811
    3.0900 	   30.9088 	    3.0000 	   17.0000 	    4.5821
    3.1815 	   30.9918 	    3.0000 	   17.0000 	    4.9141
    3.1510 	   31.0663 	    3.0000 	   17.0000 	    5.2122
    3.1052 	   31.1455 	    3.0000 	   17.0000 	    5.5292
    3.2731 	   31.2228 	    3.0000 	   17.0000 	    5.8382
    3.0900 	   31.2985 	    3.0000 	   17.0000 	    6.1412
    2.8763 	   31.3748 	    3.0000 	   17.0000 	    6.4462
    3.0137 	   31.4538 	    3.0000 	   17.0000 	    6.7622
    2.9374 	   31.5298 	    3.0000 	   17.0000 	    7.0663
    2.9068 	   31.6033 	    3.0000 	   17.0000 	    7.3603
    2.8611 	   31.6828 	    3.0000 	   17.0000 	    7.6783
    2.8305 	   31.7610 	    3.0000 	   17.0000 	    7.9913
    2.7543 	   31.8378 	    3.0000 	   17.0000 	    8.2983
    2.7848 	   31.9170 	    3.0000 	   17.0000 	    8.6153
    2.7543 	   31.9980 	    3.0000 	   17.0000 	    8.9384
    2.4186 	   32.0765 	    3.0000 	   17.0000 	    9.2524
    2.6474 	   32.1538 	    3.0000 	   17.0000 	    9.5614
    2.5406 	   32.2388 	    3.0000 	   17.0000 	    9.9004
    2.8458 	   32.3133 	    3.0000 	   17.0000 	   10.1994
    2.6322 	   32.3918 	    3.0000 	   17.0000 	   10.5135
    2.6627 	   32.4725 	    3.0000 	   17.0000 	   10.8365
    2.5711 	   32.5490 	    3.0000 	   17.0000 	   11.1425
    2.5559 	   32.6275 	    3.0000 	   17.0000 	   11.4565
    2.6627 	   32.7068 	    3.0000 	   17.0000 	   11.7735
    2.6169 	   32.7860 	    3.0000 	   17.0000 	   12.0905
    2.2354 	   32.8605 	    3.0000 	   17.0000 	   12.3886
    2.5406 	   32.9388 	    3.0000 	   17.0000 	   12.7016
    2.4186 	   33.0195 	    3.0000 	   17.0000 	   13.0246
    2.5864 	   33.0958 	    3.0000 	   17.0000 	   13.3296
    2.4338 	   33.1715 	    3.0000 	   17.0000 	   13.6326
    2.2965 	   33.2513 	    3.0000 	   17.0000 	   13.9517
    2.2507 	   33.3268 	    3.0000 	   17.0000 	   14.2537
    2.3117 	   33.4005 	    3.0000 	   17.0000 	   14.5487
    2.2660 	   33.4815 	    3.0000 	   17.0000 	   14.8727
    2.4643 	   33.5575 	    3.0000 	   17.0000 	   15.1767
    2.3270 	   33.6350 	    3.0000 	   17.0000 	   15.4867
    2.2965 	   33.7150 	    3.0000 	   17.0000 	   15.8068
    2.3423 	   33.7938 	    3.0000 	   17.0000 	   16.1218
    2.1897 	   33.8738 	    3.0000 	   17.0000 	   16.4418
    2.4491 	   33.9545 	    3.0000 	   17.0000 	   16.7648
    2.3575 	   34.0338 	    3.0000 	   17.0000 	   17.0818
    1.8692 	   34.1130 	    3.0000 	   17.0000 	   17.3988
    2.2965 	   34.1883 	    3.0000 	   17.0000 	   17.6999
    2.2354 	   34.2710 	    3.0000 	   17.0000 	   18.0309
    2.2812 	   34.3505 	    3.0000 	   17.0000 	   18.3489
    2.0829 	   34.4315 	    3.0000 	   17.0000 	   18.6729
    2.2354 	   34.5160 	    3.0000 	   17.0000 	   19.0099
    2.1592 	   34.5930 	    3.0000 	   17.0000 	   19.3190
    2.0523 	   34.6748 	    3.0000 	   17.0000 	   19.6460
    2.1897 	   34.7578 	    3.0000 	   17.0000 	   19.9780
    2.1439 	   34.8370 	    3.0000 	   17.0000 	   20.2950
    2.2507 	   34.9132 	    3.0000 	   17.0000 	   20.6000
    2.1439 	   34.9950 	    3.0000 	   17.0000 	   20.9271
    1.8082 	   35.0768 	    3.0000 	   17.0000 	   21.2541
    1.9760 	   35.1533 	    3.0000 	   17.0000 	   21.5601
    2.1897 	   35.2378 	    3.0000 	   17.0000 	   21.8981
    2.0981 	   35.3170 	    3.0000 	   17.0000 	   22.2151
    1.9913 	   35.3965 	    3.0000 	   17.0000 	   22.5331
    2.0676 	   35.4810 	    3.0000 	   17.0000 	   22.8712
    2.0829 	   35.5592 	    3.0000 	   17.0000 	   23.1842
    2.0829 	   35.6383 	    3.0000 	   17.0000 	   23.5002
    1.9760 	   35.7200 	    3.0000 	   17.0000 	   23.8272
    1.8387 	   35.8020 	    3.0000 	   17.0000 	   24.1552
    2.0218 	   35.8818 	    3.0000 	   17.0000 	   24.4743
    1.8997 	   35.9628 	    3.0000 	   17.0000 	   24.7983
    2.0218 	   36.0455 	    3.0000 	   17.0000 	   25.1293
    1.9760 	   36.1225 	    3.0000 	   17.0000 	   25.4373
    2.0218 	   36.2093 	    3.0000 	   17.0000 	   25.7843
    1.9913 	   36.2930 	    3.0000 	   17.0000 	   26.1193
    1.7777 	   36.3708 	    3.0000 	   17.0000 	   26.4294
    1.8692 	   36.4620 	    3.0000 	   17.0000 	   26.7944
    1.8540 	   36.5420 	    3.0000 	   17.0000 	   27.1144
    1.9455 	   36.6215 	    3.0000 	   17.0000 	   27.4324
    1.9760 	   36.7028 	    3.0000 	   17.0000 	   27.7574
    1.8235 	   36.7830 	    3.0000 	   17.0000 	   28.0785
    1.7624 	   36.8643 	    3.0000 	   17.0000 	   28.4035
    1.9150 	   36.9433 	    3.0000 	   17.0000 	   28.7195
    1.7472 	   37.0295 	    3.0000 	   17.0000 	   29.0645
    1.7929 	   37.1108 	    3.0000 	   17.0000 	   29.3895
    1.8997 	   37.1893 	    3.0000 	   17.0000 	   29.7036
    1.7929 	   37.2763 	    3.0000 	   17.0000 	   30.0516
    1.7624 	   37.3545 	    3.0000 	   17.0000 	   30.3646
    1.7777 	   37.4338 	    3.0000 	   17.0000 	   30.6816
    1.8540 	   37.5180 	    3.0000 	   17.0000 	   31.0186
    1.7014 	   37.5950 	    3.0000 	   17.0000 	   31.3266
    1.7472 	   37.6758 	    3.0000 	   17.0000 	   31.6497
    1.7929 	   37.7588 	    3.0000 	   17.0000 	   31.9817
    1.8845 	   37.8403 	    3.0000 	   17.0000 	   32.3077
    1.6861 	   37.9210 	    3.0000 	   17.0000 	   32.6307
    1.8540 	   38.0048 	    3.0000 	   17.0000 	   32.9657
    1.5488 	   38.0878 	    3.0000 	   17.0000 	   33.2978
    1.8082 	   38.1665 	    3.0000 	   17.0000 	   33.6128
    1.6556 	   38.2545 	    3.0000 	   17.0000 	   33.9648
    1.7472 	   38.3363 	    3.0000 	   17.0000 	   34.2918
    1.7319 	   38.4150 	    3.0000 	   17.0000 	   34.6068
    1.5640 	   38.5003 	    3.0000 	   17.0000 	   34.9479
    1.7472 	   38.5808 	    3.0000 	   17.0000 	   35.2699
    1.6403 	   38.6630 	    3.0000 	   17.0000 	   35.5989
    1.6403 	   38.7483 	    3.0000 	   17.0000 	   35.9399
    1.5488 	   38.8305 	    3.0000 	   17.0000 	   36.2689
    1.5793 	   38.9103 	    3.0000 	   17.0000 	   36.5879
    1.5793 	   38.9923 	    3.0000 	   17.0000 	   36.9160
    1.5793 	   39.0768 	    3.0000 	   17.0000 	   37.2540
    1.7014 	   39.1575 	    3.0000 	   17.0000 	   37.5770
    1.4878 	   39.2388 	    3.0000 	   17.0000 	   37.9020
    1.5183 	   39.3243 	    3.0000 	   17.0000 	   38.2440
    1.5030 	   39.4065 	    3.0000 	   17.0000 	   38.5731
    1.4725 	   39.4923 	    3.0000 	   17.0000 	   38.9161
    1.5030 	   39.5745 	    3.0000 	   17.0000 	   39.2451
    1.5030 	   39.6545 	    3.0000 	   17.0000 	   39.5651
    1.6709 	   39.7413 	    3.0000 	   17.0000 	   39.9121
    1.5183 	   39.8238 	    3.0000 	   17.0000 	   40.2422
    1.5488 	   39.9053 	    3.0000 	   17.0000 	   40.5682
    1.5640 	   39.9910 	    3.0000 	   17.0000 	   40.9112
    1.4267 	   40.0753 	    3.0000 	   17.0000 	   41.2482
    1.5030 	   40.1575 	    3.0000 	   17.0000 	   41.5772
    1.5183 	   40.2440 	    3.0000 	   17.0000 	   41.9233
    1.5488 	   40.3255 	    3.0000 	   17.0000 	   42.2493
    1.5030 	   40.4068 	    3.0000 	   17.0000 	   42.5743
    1.3046 	   40.4915 	    3.0000 	   17.0000 	   42.9133
    1.4420 	   40.5733 	    3.0000 	   17.0000 	   43.2403
    1.4115 	   40.6550 	    3.0000 	   17.0000 	   43.5673
    1.3962 	   40.7390 	    3.0000 	   17.0000 	   43.9024
    1.1521 	   40.8178 	    3.0000 	   17.0000 	   44.2174
    1.4115 	   40.8953 	    3.0000 	   17.0000 	   44.5274
    1.4878 	   40.9750 	    3.0000 	   17.0000 	   44.8464
    1.4420 	   41.0570 	    3.0000 	   17.0000 	   45.1744
    1.3504 	   41.1390 	    3.0000 	   17.0000 	   45.5025
    1.4115 	   41.2228 	    3.0000 	   17.0000 	   45.8375
    1.4115 	   41.3038 	    3.0000 	   17.0000 	   46.1615
    0.9842 	   41.3875 	    3.0000 	   17.0000 	   46.4965
    1.2284 	   41.4715 	    3.0000 	   17.0000 	   46.8325
    1.2894 	   41.5508 	    3.0000 	   17.0000 	   47.1496
    1.3352 	   41.6320 	    3.0000 	   17.0000 	   47.4746
    1.2284 	   41.7140 	    3.0000 	   17.0000 	   47.8026
    1.3046 	   41.7950 	    3.0000 	   17.0000 	   48.1266
    1.4725 	   41.8750 	    3.0000 	   17.0000 	   48.4466
    1.4572 	   41.9583 	    3.0000 	   17.0000 	   48.7796
    1.3504 	   42.0455 	    3.0000 	   17.0000 	   49.1287
    1.3046 	   42.1258 	    3.0000 	   17.0000 	   49.4497
    1.3352 	   42.2055 	    3.0000 	   17.0000 	   49.7687
    1.3199 	   42.2915 	    3.0000 	   17.0000 	   50.1127
    1.2284 	   42.3725 	    3.0000 	   17.0000 	   50.4367
    1.3352 	   42.4590 	    3.0000 	   17.0000 	   50.7828
    1.2741 	   42.5423 	    3.0000 	   17.0000 	   51.1158
    1.3809 	   42.6233 	    3.0000 	   17.0000 	   51.4398
    1.3046 	   42.7030 	    3.0000 	   17.0000 	   51.7588
    1.3809 	   42.7855 	    3.0000 	   17.0000 	   52.0888
    1.2284 	   42.8648 	    3.0000 	   17.0000 	   52.4059
    1.1673 	   42.9513 	    3.0000 	   17.0000 	   52.7519
    1.1978 	   43.0353 	    3.0000 	   17.0000 	   53.0879
    1.0300 	   43.1160 	    3.0000 	   17.0000 	   53.4109
    1.1521 	   43.1953 	    3.0000 	   17.0000 	   53.7279
    1.1673 	   43.2800 	    3.0000 	   17.0000 	   54.0669
    1.2741 	   43.3605 	    3.0000 	   17.0000 	   54.3890
    1.1978 	   43.4435 	    3.0000 	   17.0000 	   54.7210
    1.2589 	   43.5290 	    3.0000 	   17.0000 	   55.0630
    1.1673 	   43.6108 	    3.0000 	   17.0000 	   55.3900
    1.2131 	   43.6923 	    3.0000 	   17.0000 	   55.7160
    1.2131 	   43.7765 	    3.0000 	   17.0000 	   56.0531
    1.2284 	   43.8580 	    3.0000 	   17.0000 	   56.3791
    1.1063 	   43.9433 	    3.0000 	   17.0000 	   56.7201
    1.1368 	   44.0285 	    3.0000 	   17.0000 	   57.0611
    1.1826 	   44.1115 	    3.0000 	   17.0000 	   57.3931
    1.1978 	   44.1968 	    3.0000 	   17.0000 	   57.7342
    1.2284 	   44.2788 	    3.0000 	   17.0000 	   58.0622
    1.2131 	   44.3605 	    3.0000 	   17.0000 	   58.3892
    1.1215 	   44.4465 	    3.0000 	   17.0000 	   58.7332
    0.9384 	   44.5300 	    3.0000 	   17.0000 	   59.0672
    0.9995 	   44.6098 	    3.0000 	   17.0000 	   59.3862
    1.0758 	   44.6908 	    3.0000 	   17.0000 	   59.7103
    1.0452 	   44.7753 	    3.0000 	   18.0000 	    0.0483
    1.1826 	   44.8575 	    3.0000 	   18.0000 	    0.3773
    1.1215 	   44.9450 	    3.0000 	   18.0000 	    0.7273
    1.1368 	   45.0345 	    3.0000 	   18.0000 	    1.0853
    1.0452 	   45.1173 	    3.0000 	   18.0000 	    1.4154
    1.0758 	   45.2008 	    3.0000 	   18.0000 	    1.7494
    0.8469 	   45.2900 	    3.0000 	   18.0000 	    2.1064
    1.0452 	   45.3713 	    3.0000 	   18.0000 	    2.4314
    1.1368 	   45.4535 	    3.0000 	   18.0000 	    2.7604
    1.1215 	   45.5353 	    3.0000 	   18.0000 	    3.0875
    1.0147 	   45.6178 	    3.0000 	   18.0000 	    3.4175
    0.8774 	   45.7038 	    3.0000 	   18.0000 	    3.7605
    0.9995 	   45.7863 	    3.0000 	   18.0000 	    4.0915
    0.9995 	   45.8683 	    3.0000 	   18.0000 	    4.4195
    0.9689 	   45.9550 	    3.0000 	   18.0000 	    4.7666
    0.9537 	   46.0400 	    3.0000 	   18.0000 	    5.1066
    0.9689 	   46.1205 	    3.0000 	   18.0000 	    5.4286
    0.9842 	   46.2048 	    3.0000 	   18.0000 	    5.7656
    1.0605 	   46.2918 	    3.0000 	   18.0000 	    6.1136
    0.9537 	   46.3763 	    3.0000 	   18.0000 	    6.4517
    1.0300 	   46.4633 	    3.0000 	   18.0000 	    6.7997
    1.0147 	   46.5528 	    3.0000 	   18.0000 	    7.1577
    1.0300 	   46.6340 	    3.0000 	   18.0000 	    7.4827
    0.9842 	   46.7193 	    3.0000 	   18.0000 	    7.8237
    0.6027 	   46.8058 	    3.0000 	   18.0000 	    8.1698
    0.9079 	   46.8908 	    3.0000 	   18.0000 	    8.5098
    0.9842 	   46.9790 	    3.0000 	   18.0000 	    8.8628
    0.8774 	   47.0683 	    3.0000 	   18.0000 	    9.2198
    0.9232 	   47.1500 	    3.0000 	   18.0000 	    9.5468
    0.9232 	   47.2340 	    3.0000 	   18.0000 	    9.8829
    0.9232 	   47.3205 	    3.0000 	   18.0000 	   10.2289
    0.9689 	   47.4048 	    3.0000 	   18.0000 	   10.5659
    0.8927 	   47.4883 	    3.0000 	   18.0000 	   10.8999
    1.0147 	   47.5708 	    3.0000 	   18.0000 	   11.2299
    0.9537 	   47.6568 	    3.0000 	   18.0000 	   11.5739
    0.9079 	   47.7403 	    3.0000 	   18.0000 	   11.9080
    0.8621 	   47.8233 	    3.0000 	   18.0000 	   12.2400
    0.8164 	   47.9055 	    3.0000 	   18.0000 	   12.5690
    0.9232 	   47.9940 	    3.0000 	   18.0000 	   12.9230
    0.8469 	   48.0835 	    3.0000 	   18.0000 	   13.2810
    0.9384 	   48.1688 	    3.0000 	   18.0000 	   13.6221
    0.9232 	   48.2565 	    3.0000 	   18.0000 	   13.9731
    0.7706 	   48.3453 	    3.0000 	   18.0000 	   14.3281
    0.8316 	   48.4330 	    3.0000 	   18.0000 	   14.6791
    0.7858 	   48.5180 	    3.0000 	   18.0000 	   15.0191
    0.8774 	   48.6040 	    3.0000 	   18.0000 	   15.3632
    0.9537 	   48.6925 	    3.0000 	   18.0000 	   15.7172
    0.6943 	   48.7803 	    3.0000 	   18.0000 	   16.0682
    0.8164 	   48.8675 	    3.0000 	   18.0000 	   16.4172
    0.7553 	   48.9560 	    3.0000 	   18.0000 	   16.7712
    0.7553 	   49.0415 	    3.0000 	   18.0000 	   17.1133
    0.7401 	   49.1290 	    3.0000 	   18.0000 	   17.4633
    0.7706 	   49.2135 	    3.0000 	   18.0000 	   17.8013
    0.6943 	   49.3030 	    3.0000 	   18.0000 	   18.1593
    0.8621 	   49.3880 	    3.0000 	   18.0000 	   18.4993
    0.7858 	   49.4700 	    3.0000 	   18.0000 	   18.8274
    0.6790 	   49.5560 	    3.0000 	   18.0000 	   19.1704
    0.6485 	   49.6393 	    3.0000 	   18.0000 	   19.5034
    0.5875 	   49.7293 	    3.0000 	   18.0000 	   19.8634
    0.7706 	   49.8188 	    3.0000 	   18.0000 	   20.2214
    0.8164 	   49.9030 	    3.0000 	   18.0000 	   20.5585
    0.6790 	   49.9945 	    3.0000 	   18.0000 	   20.9245
    0.6638 	   50.0820 	    3.0000 	   18.0000 	   21.2745
    0.6027 	   50.1655 	    3.0000 	   18.0000 	   21.6085
    0.7401 	   50.2525 	    3.0000 	   18.0000 	   21.9565
    0.7401 	   50.3430 	    3.0000 	   18.0000 	   22.3186
    0.6943 	   50.4275 	    3.0000 	   18.0000 	   22.6566
    0.7095 	   50.5173 	    3.0000 	   18.0000 	   23.0156
    0.5264 	   50.6050 	    3.0000 	   18.0000 	   23.3666
    0.6180 	   50.6900 	    3.0000 	   18.0000 	   23.7066
    0.6485 	   50.7883 	    3.0000 	   18.0000 	   24.0997
    0.6638 	   50.8823 	    3.0000 	   18.0000 	   24.4757
    0.5875 	   50.9685 	    3.0000 	   18.0000 	   24.8207
    0.2365 	   51.0623 	    3.0000 	   18.0000 	   25.1957
    0.7553 	   51.1565 	    3.0000 	   18.0000 	   25.5728
    0.6332 	   51.2468 	    3.0000 	   18.0000 	   25.9338
    0.3891 	   51.3438 	    3.0000 	   18.0000 	   26.3218
    0.6638 	   51.4338 	    3.0000 	   18.0000 	   26.6818
    0.5570 	   51.5240 	    3.0000 	   18.0000 	   27.0428
    0.7401 	   51.6205 	    3.0000 	   18.0000 	   27.4289
    0.5417 	   51.7125 	    3.0000 	   18.0000 	   27.7969
    0.6790 	   51.8050 	    3.0000 	   18.0000 	   28.1669
    0.5875 	   51.9008 	    3.0000 	   18.0000 	   28.5499
    0.5570 	   51.9895 	    3.0000 	   18.0000 	   28.9049
    0.4959 	   52.0878 	    3.0000 	   18.0000 	   29.2980
    0.5417 	   52.1760 	    3.0000 	   18.0000 	   29.6510
    0.7401 	   52.2683 	    3.0000 	   18.0000 	   30.0200
    0.6790 	   52.3625 	    3.0000 	   18.0000 	   30.3970
    0.5417 	   52.4585 	    3.0000 	   18.0000 	   30.7810
    0.5264 	   52.5538 	    3.0000 	   18.0000 	   31.1621
    0.4044 	   52.6515 	    3.0000 	   18.0000 	   31.5531
    0.6180 	   52.7430 	    3.0000 	   18.0000 	   31.9191
    0.5722 	   52.8393 	    3.0000 	   18.0000 	   32.3041
    0.4959 	   52.9288 	    3.0000 	   18.0000 	   32.6622
    0.5264 	   53.0180 	    3.0000 	   18.0000 	   33.0192
    0.4196 	   53.1143 	    3.0000 	   18.0000 	   33.4042
    0.4044 	   53.2073 	    3.0000 	   18.0000 	   33.7762
    0.5112 	   53.3005 	    3.0000 	   18.0000 	   34.1492
    0.4196 	   53.3950 	    3.0000 	   18.0000 	   34.5273
    0.5417 	   53.4870 	    3.0000 	   18.0000 	   34.8953
    0.6027 	   53.5843 	    3.0000 	   18.0000 	   35.2843
    0.4349 	   53.6755 	    3.0000 	   18.0000 	   35.6493
    0.3281 	   53.7663 	    3.0000 	   18.0000 	   36.0123
    0.3586 	   53.8663 	    3.0000 	   18.0000 	   36.4114
    0.4044 	   53.9608 	    3.0000 	   18.0000 	   36.7894
    0.3738 	   54.0565 	    3.0000 	   18.0000 	   37.1724
    0.2976 	   54.1510 	    3.0000 	   18.0000 	   37.5504
    0.4959 	   54.2393 	    3.0000 	   18.0000 	   37.9035
    0.3281 	   54.3378 	    3.0000 	   18.0000 	   38.2975
    0.3128 	   54.4303 	    3.0000 	   18.0000 	   38.6675
    0.4044 	   54.5205 	    3.0000 	   18.0000 	   39.0285
    0.3586 	   54.6185 	    3.0000 	   18.0000 	   39.4205
    0.4196 	   54.7113 	    3.0000 	   18.0000 	   39.7916
    0.4196 	   54.8038 	    3.0000 	   18.0000 	   40.1616
    0.3128 	   54.9023 	    3.0000 	   18.0000 	   40.5556
    0.2670 	   54.9960 	    3.0000 	   18.0000 	   40.9306
    0.2213 	   55.0958 	    3.0000 	   18.0000 	   41.3297
    0.1907 	   55.1885 	    3.0000 	   18.0000 	   41.7007
    0.2518 	   55.2808 	    3.0000 	   18.0000 	   42.0697
    0.3738 	   55.3778 	    3.0000 	   18.0000 	   42.4577
    0.3281 	   55.4680 	    3.0000 	   18.0000 	   42.8187
    0.2518 	   55.5653 	    3.0000 	   18.0000 	   43.2078
    0.2060 	   55.6605 	    3.0000 	   18.0000 	   43.5888
    0.2670 	   55.7503 	    3.0000 	   18.0000 	   43.9478
    0.2365 	   55.8510 	    3.0000 	   18.0000 	   44.3508
    0.2213 	   55.9455 	    3.0000 	   18.0000 	   44.7288
    0.1907 	   56.0398 	    3.0000 	   18.0000 	   45.1059
    0.2060 	   56.1400 	    3.0000 	   18.0000 	   45.5069
    0.2060 	   56.2340 	    3.0000 	   18.0000 	   45.8829
    0.2976 	   56.3308 	    3.0000 	   18.0000 	   46.2699
    0.2518 	   56.4238 	    3.0000 	   18.0000 	   46.6420
    0.1144 	   56.5188 	    3.0000 	   18.0000 	   47.0220
    0.2060 	   56.6173 	    3.0000 	   18.0000 	   47.4160
    0.1297 	   56.7085 	    3.0000 	   18.0000 	   47.7810
    0.1755 	   56.8048 	    3.0000 	   18.0000 	   48.1660
    0.1602 	   56.9015 	    3.0000 	   18.0000 	   48.5531
    0.1907 	   56.9933 	    3.0000 	   18.0000 	   48.9201
    0.1297 	   57.0923 	    3.0000 	   18.0000 	   49.3161
    0.3128 	   57.1873 	    3.0000 	   18.0000 	   49.6961
    0.1907 	   57.2818 	    3.0000 	   18.0000 	   50.0742
    0.2976 	   57.3800 	    3.0000 	   18.0000 	   50.4672
    0.2518 	   57.4733 	    3.0000 	   18.0000 	   50.8402
    0.2365 	   57.5760 	    3.0000 	   18.0000 	   51.2512
    0.2670 	   57.6688 	    3.0000 	   18.0000 	   51.6222
    0.0992 	   57.7628 	    3.0000 	   18.0000 	   51.9983
    0.1907 	   57.8633 	    3.0000 	   18.0000 	   52.4003
    0.1602 	   57.9565 	    3.0000 	   18.0000 	   52.7733
    0.2976 	   58.0515 	    3.0000 	   18.0000 	   53.1533
    0.1907 	   58.1490 	    3.0000 	   18.0000 	   53.5434
    0.2365 	   58.2430 	    3.0000 	   18.0000 	   53.9184
    0.1755 	   58.3415 	    3.0000 	   18.0000 	   54.3114
    0.0076 	   58.4375 	    3.0000 	   18.0000 	   54.6964
    0.1755 	   58.5340 	    3.0000 	   18.0000 	   55.0824
    0.2213 	   58.6338 	    3.0000 	   18.0000 	   55.4815
    0.2060 	   58.7303 	    3.0000 	   18.0000 	   55.8675
    0.1602 	   58.8300 	    3.0000 	   18.0000 	   56.2665
    0.2670 	   58.9248 	    3.0000 	   18.0000 	   56.6455
    0.2518 	   59.0178 	    3.0000 	   18.0000 	   57.0175
    0.2670 	   59.1175 	    3.0000 	   18.0000 	   57.4166
   -0.0076 	   59.2145 	    3.0000 	   18.0000 	   57.8046
    0.1450 	   59.3095 	    3.0000 	   18.0000 	   58.1846
    0.1602 	   59.4085 	    3.0000 	   18.0000 	   58.5806
    0.0229 	   59.5053 	    3.0000 	   18.0000 	   58.9677
    0.0381 	   59.6085 	    3.0000 	   18.0000 	   59.3807
    0.1755 	   59.7055 	    3.0000 	   18.0000 	   59.7687
    0.0839 	   59.8028 	    3.0000 	   19.0000 	    0.1577
    0.1144 	   59.9015 	    3.0000 	   19.0000 	    0.5527
    0.0839 	   59.9968 	    3.0000 	   19.0000 	    0.9328
    0.1450 	   60.0950 	    3.0000 	   19.0000 	    1.3268
    0.0534 	   60.1915 	    3.0000 	   19.0000 	    1.7128
    0.1144 	   60.2883 	    3.0000 	   19.0000 	    2.0998
    0.0534 	   60.3893 	    3.0000 	   19.0000 	    2.5039
    0.3738 	   60.4865 	    3.0000 	   19.0000 	    2.8929
    0.2213 	   60.5880 	    3.0000 	   19.0000 	    3.2989
    0.2365 	   60.6840 	    3.0000 	   19.0000 	    3.6829
    0.0534 	   60.7793 	    3.0000 	   19.0000 	    4.0640
    0.1297 	   60.8808 	    3.0000 	   19.0000 	    4.4700
    0.1907 	   60.9775 	    3.0000 	   19.0000 	    4.8570
    0.1297 	   61.0763 	    3.0000 	   19.0000 	    5.2520
    0.1144 	   61.1770 	    3.0000 	   19.0000 	    5.6550
    0.2365 	   61.2738 	    3.0000 	   19.0000 	    6.0421
    0.1755 	   61.3760 	    3.0000 	   19.0000 	    6.4511
    0.1297 	   61.4710 	    3.0000 	   19.0000 	    6.8311
    0.1144 	   61.5718 	    3.0000 	   19.0000 	    7.2341
    0.2518 	   61.6723 	    3.0000 	   19.0000 	    7.6362
    0.0534 	   61.7705 	    3.0000 	   19.0000 	    8.0292
    0.0381 	   61.8735 	    3.0000 	   19.0000 	    8.4412
    0.1907 	   61.9725 	    3.0000 	   19.0000 	    8.8372
    0.2213 	   62.0740 	    3.0000 	   19.0000 	    9.2432
   -0.1755 	   62.1698 	    3.0000 	   19.0000 	    9.6263
    0.0534 	   62.2678 	    3.0000 	   19.0000 	   10.0183
    0.1450 	   62.3263 	    3.0000 	   19.0000 	   10.2523