File: instron/10_grey_2W15L_drag10_spd15.txt
Thayer School of Engineering        Instron 4442 Mechanical Testing System
6/28/2018 1:59:07 AM

  Force (N)	Extension (mm)	Not Used	Not Used	Not Used	     Hour	    Minute	    Second
    0.0687 	    0.2560 	    1.0000 	   59.0000 	   42.6486
    0.1602 	    0.3445 	    1.0000 	   59.0000 	   43.0026
    0.1297 	    0.4380 	    1.0000 	   59.0000 	   43.3767
    0.1602 	    0.5265 	    1.0000 	   59.0000 	   43.7307
    0.2060 	    0.6103 	    1.0000 	   59.0000 	   44.0657
    0.0076 	    0.6910 	    1.0000 	   59.0000 	   44.3887
    0.1602 	    0.7655 	    1.0000 	   59.0000 	   44.6867
    0.0839 	    0.8375 	    1.0000 	   59.0000 	   44.9747
    0.1755 	    0.8958 	    1.0000 	   59.0000 	   45.2078
    0.3128 	    0.9540 	    1.0000 	   59.0000 	   45.4408
    0.0992 	    1.0245 	    1.0000 	   59.0000 	   45.7228
    0.0839 	    1.0822 	    1.0000 	   59.0000 	   45.9538
    0.1450 	    1.1400 	    1.0000 	   59.0000 	   46.1848
    0.0992 	    1.1965 	    1.0000 	   59.0000 	   46.4108
    0.2213 	    1.2535 	    1.0000 	   59.0000 	   46.6388
    0.0839 	    1.3080 	    1.0000 	   59.0000 	   46.8569
    0.2213 	    1.3640 	    1.0000 	   59.0000 	   47.0809
    0.0839 	    1.4193 	    1.0000 	   59.0000 	   47.3019
    0.1602 	    1.4743 	    1.0000 	   59.0000 	   47.5219
    0.1907 	    1.5298 	    1.0000 	   59.0000 	   47.7439
    0.2060 	    1.5843 	    1.0000 	   59.0000 	   47.9619
    0.1450 	    1.6233 	    1.0000 	   59.0000 	   48.1179
    0.1144 	    1.6620 	    1.0000 	   59.0000 	   48.2729
    0.0076 	    1.7003 	    1.0000 	   59.0000 	   48.4259
    0.2670 	    1.7390 	    1.0000 	   59.0000 	   48.5810
    0.1297 	    1.7783 	    1.0000 	   59.0000 	   48.7380
    0.1755 	    1.8178 	    1.0000 	   59.0000 	   48.8960
    0.1144 	    1.8595 	    1.0000 	   59.0000 	   49.0630
    0.1297 	    1.8990 	    1.0000 	   59.0000 	   49.2200
    0.0687 	    1.9393 	    1.0000 	   59.0000 	   49.3810
    0.1602 	    1.9788 	    1.0000 	   59.0000 	   49.5390
    0.0229 	    2.0180 	    1.0000 	   59.0000 	   49.6960
   -0.1602 	    2.0580 	    1.0000 	   59.0000 	   49.8560
   -0.1144 	    2.0965 	    1.0000 	   59.0000 	   50.0100
    0.1755 	    2.1358 	    1.0000 	   59.0000 	   50.1670
    0.0992 	    2.1745 	    1.0000 	   59.0000 	   50.3221
    0.0992 	    2.2128 	    1.0000 	   59.0000 	   50.4751
    0.0381 	    2.2523 	    1.0000 	   59.0000 	   50.6331
    0.1602 	    2.2908 	    1.0000 	   59.0000 	   50.7871
    0.2213 	    2.3300 	    1.0000 	   59.0000 	   50.9441
    0.0839 	    2.3710 	    1.0000 	   59.0000 	   51.1081
    0.1907 	    2.4103 	    1.0000 	   59.0000 	   51.2651
    0.0687 	    2.4490 	    1.0000 	   59.0000 	   51.4201
    0.1144 	    2.4893 	    1.0000 	   59.0000 	   51.5811
    0.2823 	    2.5273 	    1.0000 	   59.0000 	   51.7331
    0.1450 	    2.5978 	    1.0000 	   59.0000 	   52.0151
    0.1755 	    2.6558 	    1.0000 	   59.0000 	   52.2472
    0.2365 	    2.7120 	    1.0000 	   59.0000 	   52.4722
   -0.1907 	    2.7705 	    1.0000 	   59.0000 	   52.7062
   -0.0687 	    2.8270 	    1.0000 	   59.0000 	   52.9322
    0.2670 	    2.8850 	    1.0000 	   59.0000 	   53.1642
   -0.0076 	    2.9440 	    1.0000 	   59.0000 	   53.4002
    0.2976 	    3.0025 	    1.0000 	   59.0000 	   53.6342
    0.1297 	    3.0605 	    1.0000 	   59.0000 	   53.8663
    0.1450 	    3.1195 	    1.0000 	   59.0000 	   54.1023
    0.1755 	    3.1765 	    1.0000 	   59.0000 	   54.3303
    0.2213 	    3.2348 	    1.0000 	   59.0000 	   54.5633
    0.1297 	    3.2920 	    1.0000 	   59.0000 	   54.7923
    0.2060 	    3.3463 	    1.0000 	   59.0000 	   55.0093
    0.2060 	    3.4053 	    1.0000 	   59.0000 	   55.2453
    0.1450 	    3.4635 	    1.0000 	   59.0000 	   55.4783
   -0.0687 	    3.5220 	    1.0000 	   59.0000 	   55.7124
    0.1907 	    3.5800 	    1.0000 	   59.0000 	   55.9444
    0.2213 	    3.6403 	    1.0000 	   59.0000 	   56.1854
    0.1602 	    3.6990 	    1.0000 	   59.0000 	   56.4204
    0.1755 	    3.7580 	    1.0000 	   59.0000 	   56.6564
    0.1602 	    3.8150 	    1.0000 	   59.0000 	   56.8844
    0.2670 	    3.8775 	    1.0000 	   59.0000 	   57.1344
    0.2365 	    3.9373 	    1.0000 	   59.0000 	   57.3735
    0.1907 	    3.9958 	    1.0000 	   59.0000 	   57.6075
   -0.0076 	    4.0563 	    1.0000 	   59.0000 	   57.8495
    0.1144 	    4.1155 	    1.0000 	   59.0000 	   58.0865
    0.2365 	    4.1735 	    1.0000 	   59.0000 	   58.3185
    0.0381 	    4.2290 	    1.0000 	   59.0000 	   58.5405
    0.0687 	    4.2823 	    1.0000 	   59.0000 	   58.7535
    0.0839 	    4.3350 	    1.0000 	   59.0000 	   58.9645
    0.2670 	    4.3893 	    1.0000 	   59.0000 	   59.1816
    0.0839 	    4.4470 	    1.0000 	   59.0000 	   59.4126
    0.1907 	    4.5040 	    1.0000 	   59.0000 	   59.6406
    0.0687 	    4.5663 	    1.0000 	   59.0000 	   59.8896
    0.0687 	    4.6213 	    2.0000 	    0.0000 	    0.1096
    0.1144 	    4.6770 	    2.0000 	    0.0000 	    0.3326
    0.1144 	    4.7385 	    2.0000 	    0.0000 	    0.5776
    0.1144 	    4.7988 	    2.0000 	    0.0000 	    0.8197
    0.1450 	    4.8628 	    2.0000 	    0.0000 	    1.0757
   -0.0992 	    4.9248 	    2.0000 	    0.0000 	    1.3237
    0.0381 	    4.9853 	    2.0000 	    0.0000 	    1.5647
    0.2518 	    5.0463 	    2.0000 	    0.0000 	    1.8097
    0.0687 	    5.1075 	    2.0000 	    0.0000 	    2.0547
    0.1450 	    5.1698 	    2.0000 	    0.0000 	    2.3037
    0.2518 	    5.2330 	    2.0000 	    0.0000 	    2.5568
    0.1602 	    5.2945 	    2.0000 	    0.0000 	    2.8028
    0.1297 	    5.3573 	    2.0000 	    0.0000 	    3.0538
    0.2365 	    5.4203 	    2.0000 	    0.0000 	    3.3058
    0.3128 	    5.4820 	    2.0000 	    0.0000 	    3.5528
    0.0839 	    5.5410 	    2.0000 	    0.0000 	    3.7888
    0.2365 	    5.6023 	    2.0000 	    0.0000 	    4.0338
    0.2365 	    5.6650 	    2.0000 	    0.0000 	    4.2849
    0.3128 	    5.7268 	    2.0000 	    0.0000 	    4.5319
    0.1450 	    5.7870 	    2.0000 	    0.0000 	    4.7729
    0.2060 	    5.8473 	    2.0000 	    0.0000 	    5.0139
    0.0534 	    5.9105 	    2.0000 	    0.0000 	    5.2669
    0.1755 	    5.9723 	    2.0000 	    0.0000 	    5.5139
    0.1602 	    6.0365 	    2.0000 	    0.0000 	    5.7709
    0.0992 	    6.0995 	    2.0000 	    0.0000 	    6.0230
    0.1144 	    6.1645 	    2.0000 	    0.0000 	    6.2830
    0.1297 	    6.2285 	    2.0000 	    0.0000 	    6.5390
   -0.0687 	    6.2918 	    2.0000 	    0.0000 	    6.7910
    0.2976 	    6.3540 	    2.0000 	    0.0000 	    7.0400
   -0.1297 	    6.4175 	    2.0000 	    0.0000 	    7.2940
    0.1907 	    6.4823 	    2.0000 	    0.0000 	    7.5530
    0.0839 	    6.5403 	    2.0000 	    0.0000 	    7.7851
    0.1602 	    6.6043 	    2.0000 	    0.0000 	    8.0411
    0.1144 	    6.6698 	    2.0000 	    0.0000 	    8.3031
    0.0687 	    6.7355 	    2.0000 	    0.0000 	    8.5661
    0.1602 	    6.7990 	    2.0000 	    0.0000 	    8.8201
    0.0687 	    6.8628 	    2.0000 	    0.0000 	    9.0751
    0.0076 	    6.9210 	    2.0000 	    0.0000 	    9.3081
   -0.2060 	    6.9820 	    2.0000 	    0.0000 	    9.5522
    0.2213 	    7.0463 	    2.0000 	    0.0000 	    9.8092
    0.1144 	    7.1115 	    2.0000 	    0.0000 	   10.0702
    0.3128 	    7.1765 	    2.0000 	    0.0000 	   10.3302
    0.1297 	    7.2415 	    2.0000 	    0.0000 	   10.5902
    0.1755 	    7.3063 	    2.0000 	    0.0000 	   10.8492
    0.2365 	    7.3725 	    2.0000 	    0.0000 	   11.1142
    0.2213 	    7.4393 	    2.0000 	    0.0000 	   11.3813
    0.1144 	    7.4995 	    2.0000 	    0.0000 	   11.6223
    0.1602 	    7.5610 	    2.0000 	    0.0000 	   11.8683
    0.2365 	    7.6263 	    2.0000 	    0.0000 	   12.1293
    0.2213 	    7.6860 	    2.0000 	    0.0000 	   12.3683
    0.0992 	    7.7520 	    2.0000 	    0.0000 	   12.6323
    0.3128 	    7.8170 	    2.0000 	    0.0000 	   12.8923
    0.2670 	    7.8833 	    2.0000 	    0.0000 	   13.1574
    0.2213 	    7.9480 	    2.0000 	    0.0000 	   13.4164
    0.1755 	    8.0105 	    2.0000 	    0.0000 	   13.6664
    0.0992 	    8.0782 	    2.0000 	    0.0000 	   13.9374
    0.2823 	    8.1450 	    2.0000 	    0.0000 	   14.2044
    0.2823 	    8.2118 	    2.0000 	    0.0000 	   14.4714
    0.1144 	    8.2798 	    2.0000 	    0.0000 	   14.7434
    0.2365 	    8.3465 	    2.0000 	    0.0000 	   15.0105
    0.0992 	    8.4138 	    2.0000 	    0.0000 	   15.2795
    0.0992 	    8.4805 	    2.0000 	    0.0000 	   15.5465
    0.1755 	    8.5403 	    2.0000 	    0.0000 	   15.7855
    0.0534 	    8.6060 	    2.0000 	    0.0000 	   16.0485
    0.1602 	    8.6745 	    2.0000 	    0.0000 	   16.3225
    0.1297 	    8.7415 	    2.0000 	    0.0000 	   16.5906
    0.1297 	    8.8080 	    2.0000 	    0.0000 	   16.8566
    0.3128 	    8.8767 	    2.0000 	    0.0000 	   17.1316
    0.2213 	    8.9443 	    2.0000 	    0.0000 	   17.4016
    0.2060 	    9.0115 	    2.0000 	    0.0000 	   17.6706
    0.3433 	    9.0763 	    2.0000 	    0.0000 	   17.9296
    0.3586 	    9.1420 	    2.0000 	    0.0000 	   18.1926
    0.2518 	    9.2103 	    2.0000 	    0.0000 	   18.4657
    0.1602 	    9.2803 	    2.0000 	    0.0000 	   18.7457
    0.1907 	    9.3423 	    2.0000 	    0.0000 	   18.9937
    0.0229 	    9.4030 	    2.0000 	    0.0000 	   19.2367
    0.0229 	    9.4648 	    2.0000 	    0.0000 	   19.4837
    0.1297 	    9.5278 	    2.0000 	    0.0000 	   19.7357
    0.2976 	    9.5970 	    2.0000 	    0.0000 	   20.0128
    0.1144 	    9.6663 	    2.0000 	    0.0000 	   20.2898
    0.2976 	    9.7343 	    2.0000 	    0.0000 	   20.5618
    0.0687 	    9.8013 	    2.0000 	    0.0000 	   20.8298
    0.2213 	    9.8730 	    2.0000 	    0.0000 	   21.1168
    0.2365 	    9.9393 	    2.0000 	    0.0000 	   21.3818
    0.1450 	   10.0058 	    2.0000 	    0.0000 	   21.6478
   -0.0076 	   10.0715 	    2.0000 	    0.0000 	   21.9109
    0.2060 	   10.1403 	    2.0000 	    0.0000 	   22.1859
    0.3738 	   10.2083 	    2.0000 	    0.0000 	   22.4579
    0.0534 	   10.2728 	    2.0000 	    0.0000 	   22.7159
    0.1907 	   10.3355 	    2.0000 	    0.0000 	   22.9669
    0.2518 	   10.3988 	    2.0000 	    0.0000 	   23.2199
   -0.1602 	   10.4618 	    2.0000 	    0.0000 	   23.4719
    0.2518 	   10.5233 	    2.0000 	    0.0000 	   23.7180
    0.2518 	   10.5870 	    2.0000 	    0.0000 	   23.9730
    0.1144 	   10.6563 	    2.0000 	    0.0000 	   24.2490
    0.2060 	   10.7263 	    2.0000 	    0.0000 	   24.5290
    0.3433 	   10.7948 	    2.0000 	    0.0000 	   24.8030
    0.2060 	   10.8660 	    2.0000 	    0.0000 	   25.0880
    0.2518 	   10.9350 	    2.0000 	    0.0000 	   25.3641
    0.2823 	   11.0050 	    2.0000 	    0.0000 	   25.6441
    0.1755 	   11.0765 	    2.0000 	    0.0000 	   25.9301
    0.0534 	   11.1468 	    2.0000 	    0.0000 	   26.2111
    0.1450 	   11.2175 	    2.0000 	    0.0000 	   26.4941
   -0.0076 	   11.2840 	    2.0000 	    0.0000 	   26.7601
    0.1602 	   11.3458 	    2.0000 	    0.0000 	   27.0072
    0.1144 	   11.4153 	    2.0000 	    0.0000 	   27.2852
    0.2060 	   11.4865 	    2.0000 	    0.0000 	   27.5702
    0.1602 	   11.5555 	    2.0000 	    0.0000 	   27.8462
    0.1755 	   11.6290 	    2.0000 	    0.0000 	   28.1402
    0.2365 	   11.7008 	    2.0000 	    0.0000 	   28.4272
    0.1907 	   11.7738 	    2.0000 	    0.0000 	   28.7192
    0.2213 	   11.8443 	    2.0000 	    0.0000 	   29.0013
    0.1602 	   11.9143 	    2.0000 	    0.0000 	   29.2813
    0.2365 	   11.9863 	    2.0000 	    0.0000 	   29.5693
    0.2365 	   12.0548 	    2.0000 	    0.0000 	   29.8433
   -0.0534 	   12.1193 	    2.0000 	    0.0000 	   30.1013
    0.2823 	   12.1828 	    2.0000 	    0.0000 	   30.3553
    0.2213 	   12.2523 	    2.0000 	    0.0000 	   30.6334
    0.2670 	   12.3208 	    2.0000 	    0.0000 	   30.9074
    0.4044 	   12.3895 	    2.0000 	    0.0000 	   31.1824
    0.2670 	   12.4575 	    2.0000 	    0.0000 	   31.4544
    0.3281 	   12.5250 	    2.0000 	    0.0000 	   31.7244
    0.2976 	   12.5895 	    2.0000 	    0.0000 	   31.9824
    0.3433 	   12.6588 	    2.0000 	    0.0000 	   32.2595
    0.4959 	   12.7305 	    2.0000 	    0.0000 	   32.5465
    0.4654 	   12.7990 	    2.0000 	    0.0000 	   32.8205
    0.3738 	   12.8695 	    2.0000 	    0.0000 	   33.1025
    0.4654 	   12.9405 	    2.0000 	    0.0000 	   33.3865
    0.4807 	   13.0130 	    2.0000 	    0.0000 	   33.6765
    0.4349 	   13.0860 	    2.0000 	    0.0000 	   33.9685
    0.5570 	   13.1565 	    2.0000 	    0.0000 	   34.2496
    0.5875 	   13.2278 	    2.0000 	    0.0000 	   34.5356
    0.6790 	   13.3000 	    2.0000 	    0.0000 	   34.8246
    0.4654 	   13.3743 	    2.0000 	    0.0000 	   35.1216
    0.5875 	   13.4428 	    2.0000 	    0.0000 	   35.3956
    0.7858 	   13.5123 	    2.0000 	    0.0000 	   35.6736
    0.8011 	   13.5833 	    2.0000 	    0.0000 	   35.9577
    0.7095 	   13.6533 	    2.0000 	    0.0000 	   36.2377
    0.7858 	   13.7230 	    2.0000 	    0.0000 	   36.5167
    0.6790 	   13.7938 	    2.0000 	    0.0000 	   36.7997
    0.7553 	   13.8640 	    2.0000 	    0.0000 	   37.0807
    0.6943 	   13.9335 	    2.0000 	    0.0000 	   37.3587
    0.8621 	   13.9988 	    2.0000 	    0.0000 	   37.6198
    1.1063 	   14.0693 	    2.0000 	    0.0000 	   37.9018
    0.8621 	   14.1375 	    2.0000 	    0.0000 	   38.1748
    0.8621 	   14.1995 	    2.0000 	    0.0000 	   38.4228
    0.6485 	   14.2613 	    2.0000 	    0.0000 	   38.6698
    0.8316 	   14.3278 	    2.0000 	    0.0000 	   38.9358
    0.6180 	   14.3973 	    2.0000 	    0.0000 	   39.2138
    0.9537 	   14.4670 	    2.0000 	    0.0000 	   39.4929
    0.9384 	   14.5355 	    2.0000 	    0.0000 	   39.7669
    0.9537 	   14.6045 	    2.0000 	    0.0000 	   40.0429
    0.9842 	   14.6735 	    2.0000 	    0.0000 	   40.3189
    1.0300 	   14.7355 	    2.0000 	    0.0000 	   40.5669
    0.7401 	   14.8040 	    2.0000 	    0.0000 	   40.8409
    1.0605 	   14.8745 	    2.0000 	    0.0000 	   41.1230
    0.9995 	   14.9440 	    2.0000 	    0.0000 	   41.4010
    1.0452 	   15.0130 	    2.0000 	    0.0000 	   41.6760
    0.9232 	   15.0808 	    2.0000 	    0.0000 	   41.9470
    1.2436 	   15.1420 	    2.0000 	    0.0000 	   42.1920
    1.2284 	   15.2045 	    2.0000 	    0.0000 	   42.4420
    1.1826 	   15.2658 	    2.0000 	    0.0000 	   42.6870
    0.9995 	   15.3278 	    2.0000 	    0.0000 	   42.9351
    1.1063 	   15.3928 	    2.0000 	    0.0000 	   43.1951
    1.1673 	   15.4608 	    2.0000 	    0.0000 	   43.4671
    1.1978 	   15.5275 	    2.0000 	    0.0000 	   43.7341
    1.2131 	   15.5948 	    2.0000 	    0.0000 	   44.0031
    1.1215 	   15.6660 	    2.0000 	    0.0000 	   44.2881
    1.2284 	   15.7358 	    2.0000 	    0.0000 	   44.5672
    1.3046 	   15.8073 	    2.0000 	    0.0000 	   44.8532
    1.3352 	   15.8768 	    2.0000 	    0.0000 	   45.1312
    1.3504 	   15.9473 	    2.0000 	    0.0000 	   45.4132
    1.0452 	   16.0168 	    2.0000 	    0.0000 	   45.6912
    1.4725 	   16.0845 	    2.0000 	    0.0000 	   45.9622
    1.3199 	   16.1525 	    2.0000 	    0.0000 	   46.2342
    1.4420 	   16.2175 	    2.0000 	    0.0000 	   46.4943
    1.3352 	   16.2847 	    2.0000 	    0.0000 	   46.7633
    1.2894 	   16.3475 	    2.0000 	    0.0000 	   47.0143
    1.3199 	   16.4143 	    2.0000 	    0.0000 	   47.2813
    1.3809 	   16.4820 	    2.0000 	    0.0000 	   47.5523
    1.5488 	   16.5487 	    2.0000 	    0.0000 	   47.8193
    1.3046 	   16.6135 	    2.0000 	    0.0000 	   48.0784
    1.4115 	   16.6763 	    2.0000 	    0.0000 	   48.3294
    1.4725 	   16.7418 	    2.0000 	    0.0000 	   48.5914
    1.6709 	   16.8103 	    2.0000 	    0.0000 	   48.8654
    1.3657 	   16.8820 	    2.0000 	    0.0000 	   49.1524
    1.3199 	   16.9448 	    2.0000 	    0.0000 	   49.4034
    1.5030 	   17.0100 	    2.0000 	    0.0000 	   49.6644
    1.3657 	   17.0750 	    2.0000 	    0.0000 	   49.9245
    1.4420 	   17.1375 	    2.0000 	    0.0000 	   50.1745
    1.6098 	   17.2000 	    2.0000 	    0.0000 	   50.4245
    1.4725 	   17.2670 	    2.0000 	    0.0000 	   50.6925
    1.5335 	   17.3363 	    2.0000 	    0.0000 	   50.9695
    1.5335 	   17.4015 	    2.0000 	    0.0000 	   51.2305
    1.6403 	   17.4648 	    2.0000 	    0.0000 	   51.4836
    1.5030 	   17.5358 	    2.0000 	    0.0000 	   51.7676
    1.5793 	   17.6058 	    2.0000 	    0.0000 	   52.0476
    1.5030 	   17.6715 	    2.0000 	    0.0000 	   52.3106
    1.4725 	   17.7388 	    2.0000 	    0.0000 	   52.5796
    1.5793 	   17.8098 	    2.0000 	    0.0000 	   52.8636
    1.6251 	   17.8805 	    2.0000 	    0.0000 	   53.1466
    1.6098 	   17.9445 	    2.0000 	    0.0000 	   53.4027
    1.7624 	   18.0120 	    2.0000 	    0.0000 	   53.6727
    1.6556 	   18.0843 	    2.0000 	    0.0000 	   53.9617
    1.4420 	   18.1495 	    2.0000 	    0.0000 	   54.2227
    1.6403 	   18.2128 	    2.0000 	    0.0000 	   54.4757
    1.4878 	   18.2833 	    2.0000 	    0.0000 	   54.7577
    1.7929 	   18.3535 	    2.0000 	    0.0000 	   55.0388
    1.6861 	   18.4165 	    2.0000 	    0.0000 	   55.2908
    1.7166 	   18.4815 	    2.0000 	    0.0000 	   55.5508
    1.6709 	   18.5535 	    2.0000 	    0.0000 	   55.8388
    1.7166 	   18.6178 	    2.0000 	    0.0000 	   56.0958
    1.8387 	   18.6815 	    2.0000 	    0.0000 	   56.3508
    1.8540 	   18.7488 	    2.0000 	    0.0000 	   56.6198
    1.7624 	   18.8193 	    2.0000 	    0.0000 	   56.9019
    1.7472 	   18.8888 	    2.0000 	    0.0000 	   57.1799
    1.4420 	   18.9545 	    2.0000 	    0.0000 	   57.4429
    1.8235 	   19.0248 	    2.0000 	    0.0000 	   57.7239
    1.7166 	   19.0972 	    2.0000 	    0.0000 	   58.0139
    1.7929 	   19.1653 	    2.0000 	    0.0000 	   58.2859
    1.8845 	   19.2313 	    2.0000 	    0.0000 	   58.5500
    1.7777 	   19.2965 	    2.0000 	    0.0000 	   58.8110
    1.8692 	   19.3685 	    2.0000 	    0.0000 	   59.0990
    2.0066 	   19.4363 	    2.0000 	    0.0000 	   59.3690
    1.9150 	   19.5093 	    2.0000 	    0.0000 	   59.6610
    1.7929 	   19.5815 	    2.0000 	    0.0000 	   59.9500
    1.8997 	   19.6530 	    2.0000 	    1.0000 	    0.2361
    1.8387 	   19.7200 	    2.0000 	    1.0000 	    0.5041
    1.8997 	   19.7873 	    2.0000 	    1.0000 	    0.7731
    1.9455 	   19.8585 	    2.0000 	    1.0000 	    1.0581
    1.9455 	   19.9280 	    2.0000 	    1.0000 	    1.3361
    1.8845 	   19.9990 	    2.0000 	    1.0000 	    1.6201
    1.9303 	   20.0733 	    2.0000 	    1.0000 	    1.9171
    1.9913 	   20.1460 	    2.0000 	    1.0000 	    2.2082
    1.9455 	   20.2198 	    2.0000 	    1.0000 	    2.5032
    1.9455 	   20.2918 	    2.0000 	    1.0000 	    2.7912
    1.9608 	   20.3578 	    2.0000 	    1.0000 	    3.0552
    2.0218 	   20.4245 	    2.0000 	    1.0000 	    3.3222
    2.1744 	   20.4908 	    2.0000 	    1.0000 	    3.5872
    2.0676 	   20.5640 	    2.0000 	    1.0000 	    3.8803
    1.9303 	   20.6368 	    2.0000 	    1.0000 	    4.1713
    2.0981 	   20.7015 	    2.0000 	    1.0000 	    4.4303
    2.0066 	   20.7670 	    2.0000 	    1.0000 	    4.6923
    1.9760 	   20.8328 	    2.0000 	    1.0000 	    4.9553
    2.0218 	   20.8975 	    2.0000 	    1.0000 	    5.2143
    1.9913 	   20.9638 	    2.0000 	    1.0000 	    5.4794
    1.9913 	   21.0303 	    2.0000 	    1.0000 	    5.7454
    1.9150 	   21.0968 	    2.0000 	    1.0000 	    6.0114
    2.0218 	   21.1650 	    2.0000 	    1.0000 	    6.2844
    1.9760 	   21.2298 	    2.0000 	    1.0000 	    6.5434
    1.9608 	   21.2948 	    2.0000 	    1.0000 	    6.8034
    1.8997 	   21.3628 	    2.0000 	    1.0000 	    7.0754
    1.9913 	   21.4293 	    2.0000 	    1.0000 	    7.3415
    1.8845 	   21.4953 	    2.0000 	    1.0000 	    7.6055
    1.8845 	   21.5618 	    2.0000 	    1.0000 	    7.8715
    2.0371 	   21.6313 	    2.0000 	    1.0000 	    8.1495
    1.9608 	   21.7035 	    2.0000 	    1.0000 	    8.4385
    1.9303 	   21.7775 	    2.0000 	    1.0000 	    8.7345
    2.0981 	   21.8535 	    2.0000 	    1.0000 	    9.0386
    1.9760 	   21.9268 	    2.0000 	    1.0000 	    9.3316
    1.9303 	   21.9978 	    2.0000 	    1.0000 	    9.6156
    1.9608 	   22.0728 	    2.0000 	    1.0000 	    9.9156
    1.9913 	   22.1398 	    2.0000 	    1.0000 	   10.1836
    1.9913 	   22.2128 	    2.0000 	    1.0000 	   10.4756
    1.8997 	   22.2823 	    2.0000 	    1.0000 	   10.7537
    1.9150 	   22.3560 	    2.0000 	    1.0000 	   11.0487
    2.0676 	   22.4248 	    2.0000 	    1.0000 	   11.3237
    1.8082 	   22.4910 	    2.0000 	    1.0000 	   11.5887
    1.9608 	   22.5635 	    2.0000 	    1.0000 	   11.8787
    1.9913 	   22.6383 	    2.0000 	    1.0000 	   12.1777
    1.9913 	   22.7095 	    2.0000 	    1.0000 	   12.4628
    1.9150 	   22.7808 	    2.0000 	    1.0000 	   12.7478
    2.0523 	   22.8550 	    2.0000 	    1.0000 	   13.0448
    1.8235 	   22.9285 	    2.0000 	    1.0000 	   13.3388
    2.0371 	   23.0018 	    2.0000 	    1.0000 	   13.6318
    1.6251 	   23.0693 	    2.0000 	    1.0000 	   13.9018
    1.8235 	   23.1368 	    2.0000 	    1.0000 	   14.1718
    1.8540 	   23.2038 	    2.0000 	    1.0000 	   14.4399
    1.8387 	   23.2705 	    2.0000 	    1.0000 	   14.7069
    1.9455 	   23.3415 	    2.0000 	    1.0000 	   14.9909
    1.8540 	   23.4143 	    2.0000 	    1.0000 	   15.2819
    1.9455 	   23.4828 	    2.0000 	    1.0000 	   15.5559
    1.8692 	   23.5553 	    2.0000 	    1.0000 	   15.8459
    2.0066 	   23.6275 	    2.0000 	    1.0000 	   16.1350
    1.9150 	   23.7018 	    2.0000 	    1.0000 	   16.4320
    1.9913 	   23.7693 	    2.0000 	    1.0000 	   16.7010
    1.9608 	   23.8360 	    2.0000 	    1.0000 	   16.9680
    2.0066 	   23.9028 	    2.0000 	    1.0000 	   17.2350
    2.0218 	   23.9710 	    2.0000 	    1.0000 	   17.5080
    1.8387 	   24.0438 	    2.0000 	    1.0000 	   17.7991
    1.9913 	   24.1183 	    2.0000 	    1.0000 	   18.0971
    1.8540 	   24.1913 	    2.0000 	    1.0000 	   18.3891
    2.0218 	   24.2655 	    2.0000 	    1.0000 	   18.6861
    2.0676 	   24.3388 	    2.0000 	    1.0000 	   18.9791
    1.9455 	   24.4093 	    2.0000 	    1.0000 	   19.2611
    2.0066 	   24.4835 	    2.0000 	    1.0000 	   19.5582
    1.9455 	   24.5565 	    2.0000 	    1.0000 	   19.8502
    1.8235 	   24.6248 	    2.0000 	    1.0000 	   20.1232
    1.9455 	   24.6933 	    2.0000 	    1.0000 	   20.3972
    2.0066 	   24.7658 	    2.0000 	    1.0000 	   20.6872
    1.9150 	   24.8418 	    2.0000 	    1.0000 	   20.9912
    1.8692 	   24.9140 	    2.0000 	    1.0000 	   21.2803
    1.7624 	   24.9865 	    2.0000 	    1.0000 	   21.5703
    1.9455 	   25.0633 	    2.0000 	    1.0000 	   21.8773
    1.8692 	   25.1385 	    2.0000 	    1.0000 	   22.1783
    2.0371 	   25.2150 	    2.0000 	    1.0000 	   22.4843
    1.8540 	   25.2868 	    2.0000 	    1.0000 	   22.7713
    1.9303 	   25.3565 	    2.0000 	    1.0000 	   23.0504
    1.8845 	   25.4253 	    2.0000 	    1.0000 	   23.3254
    1.8845 	   25.4948 	    2.0000 	    1.0000 	   23.6034
    1.9913 	   25.5643 	    2.0000 	    1.0000 	   23.8814
    1.8845 	   25.6400 	    2.0000 	    1.0000 	   24.1844
    1.9150 	   25.7155 	    2.0000 	    1.0000 	   24.4864
    1.8082 	   25.7900 	    2.0000 	    1.0000 	   24.7845
    1.9150 	   25.8678 	    2.0000 	    1.0000 	   25.0955
    1.8692 	   25.9445 	    2.0000 	    1.0000 	   25.4025
    1.9455 	   26.0210 	    2.0000 	    1.0000 	   25.7085
    1.8997 	   26.0953 	    2.0000 	    1.0000 	   26.0055
    1.9913 	   26.1675 	    2.0000 	    1.0000 	   26.2945
    1.8845 	   26.2438 	    2.0000 	    1.0000 	   26.5996
    2.0523 	   26.3175 	    2.0000 	    1.0000 	   26.8946
    1.9455 	   26.3868 	    2.0000 	    1.0000 	   27.1716
    1.6251 	   26.4598 	    2.0000 	    1.0000 	   27.4636
    1.9303 	   26.5340 	    2.0000 	    1.0000 	   27.7606
    2.0066 	   26.6045 	    2.0000 	    1.0000 	   28.0426
    2.0829 	   26.6753 	    2.0000 	    1.0000 	   28.3257
    1.7929 	   26.7480 	    2.0000 	    1.0000 	   28.6167
    2.0066 	   26.8173 	    2.0000 	    1.0000 	   28.8937
    1.8845 	   26.8915 	    2.0000 	    1.0000 	   29.1907
    1.7319 	   26.9690 	    2.0000 	    1.0000 	   29.5007
    1.9608 	   27.0458 	    2.0000 	    1.0000 	   29.8077
    1.9455 	   27.1158 	    2.0000 	    1.0000 	   30.0878
    1.8082 	   27.1863 	    2.0000 	    1.0000 	   30.3698
    1.9455 	   27.2585 	    2.0000 	    1.0000 	   30.6578
    1.8082 	   27.3325 	    2.0000 	    1.0000 	   30.9548
    1.8387 	   27.4098 	    2.0000 	    1.0000 	   31.2638
    1.7319 	   27.4800 	    2.0000 	    1.0000 	   31.5448
    1.8692 	   27.5513 	    2.0000 	    1.0000 	   31.8299
    1.9455 	   27.6273 	    2.0000 	    1.0000 	   32.1339
    1.9760 	   27.6978 	    2.0000 	    1.0000 	   32.4159
    2.0218 	   27.7715 	    2.0000 	    1.0000 	   32.7109
    2.0066 	   27.8430 	    2.0000 	    1.0000 	   32.9969
    1.8082 	   27.9165 	    2.0000 	    1.0000 	   33.2909
    1.8845 	   27.9888 	    2.0000 	    1.0000 	   33.5800
    1.9608 	   28.0645 	    2.0000 	    1.0000 	   33.8830
    1.8387 	   28.1380 	    2.0000 	    1.0000 	   34.1760
    1.8845 	   28.2108 	    2.0000 	    1.0000 	   34.4670
    1.8997 	   28.2843 	    2.0000 	    1.0000 	   34.7610
    1.8845 	   28.3590 	    2.0000 	    1.0000 	   35.0600
    1.8387 	   28.4373 	    2.0000 	    1.0000 	   35.3731
    1.7319 	   28.5143 	    2.0000 	    1.0000 	   35.6811
    1.9150 	   28.5843 	    2.0000 	    1.0000 	   35.9611
    1.9913 	   28.6593 	    2.0000 	    1.0000 	   36.2611
    1.8235 	   28.7295 	    2.0000 	    1.0000 	   36.5421
    1.8845 	   28.8008 	    2.0000 	    1.0000 	   36.8271
    1.9608 	   28.8730 	    2.0000 	    1.0000 	   37.1162
    1.7777 	   28.9433 	    2.0000 	    1.0000 	   37.3972
    2.0066 	   29.0150 	    2.0000 	    1.0000 	   37.6842
    1.9150 	   29.0965 	    2.0000 	    1.0000 	   38.0102
    1.8845 	   29.1733 	    2.0000 	    1.0000 	   38.3172
    1.9303 	   29.2510 	    2.0000 	    1.0000 	   38.6282
    1.8540 	   29.3230 	    2.0000 	    1.0000 	   38.9163
    1.8845 	   29.3935 	    2.0000 	    1.0000 	   39.1983
    1.9913 	   29.4640 	    2.0000 	    1.0000 	   39.4803
    1.8692 	   29.5363 	    2.0000 	    1.0000 	   39.7693
    1.8082 	   29.6073 	    2.0000 	    1.0000 	   40.0533
    1.7777 	   29.6795 	    2.0000 	    1.0000 	   40.3423
    1.8387 	   29.7565 	    2.0000 	    1.0000 	   40.6504
    1.7472 	   29.8293 	    2.0000 	    1.0000 	   40.9414
    1.8692 	   29.9078 	    2.0000 	    1.0000 	   41.2554
    1.9150 	   29.9860 	    2.0000 	    1.0000 	   41.5684
    1.9913 	   30.0620 	    2.0000 	    1.0000 	   41.8724
    1.9150 	   30.1390 	    2.0000 	    1.0000 	   42.1805
    1.8387 	   30.2148 	    2.0000 	    1.0000 	   42.4835
    1.8082 	   30.2880 	    2.0000 	    1.0000 	   42.7765
    1.7777 	   30.3643 	    2.0000 	    1.0000 	   43.0815
    1.9150 	   30.4405 	    2.0000 	    1.0000 	   43.3865
    2.1439 	   30.5148 	    2.0000 	    1.0000 	   43.6835
    1.8997 	   30.5868 	    2.0000 	    1.0000 	   43.9716
    1.8387 	   30.6635 	    2.0000 	    1.0000 	   44.2786
    1.9455 	   30.7380 	    2.0000 	    1.0000 	   44.5766
    1.8082 	   30.8123 	    2.0000 	    1.0000 	   44.8736
    1.7929 	   30.8860 	    2.0000 	    1.0000 	   45.1686
    1.9150 	   30.9598 	    2.0000 	    1.0000 	   45.4636
    1.7929 	   31.0338 	    2.0000 	    1.0000 	   45.7597
    1.8387 	   31.1078 	    2.0000 	    1.0000 	   46.0557
    1.8235 	   31.1808 	    2.0000 	    1.0000 	   46.3477
    1.8387 	   31.2550 	    2.0000 	    1.0000 	   46.6447
    1.7777 	   31.3283 	    2.0000 	    1.0000 	   46.9377
    1.7166 	   31.4045 	    2.0000 	    1.0000 	   47.2427
    1.8540 	   31.4855 	    2.0000 	    1.0000 	   47.5668
    1.8235 	   31.5603 	    2.0000 	    1.0000 	   47.8658
    1.8235 	   31.6328 	    2.0000 	    1.0000 	   48.1558
    1.8387 	   31.7125 	    2.0000 	    1.0000 	   48.4748
    1.9608 	   31.7863 	    2.0000 	    1.0000 	   48.7698
    1.9455 	   31.8610 	    2.0000 	    1.0000 	   49.0688
    1.7929 	   31.9390 	    2.0000 	    1.0000 	   49.3809
    1.9150 	   32.0180 	    2.0000 	    1.0000 	   49.6969
    1.8235 	   32.0915 	    2.0000 	    1.0000 	   49.9909
    1.9455 	   32.1693 	    2.0000 	    1.0000 	   50.3019
    1.6403 	   32.2493 	    2.0000 	    1.0000 	   50.6219
    1.9150 	   32.3238 	    2.0000 	    1.0000 	   50.9199
    1.8082 	   32.3995 	    2.0000 	    1.0000 	   51.2230
    1.8540 	   32.4793 	    2.0000 	    1.0000 	   51.5420
    2.0523 	   32.5570 	    2.0000 	    1.0000 	   51.8520
    1.7472 	   32.6348 	    2.0000 	    1.0000 	   52.1630
    1.8692 	   32.7143 	    2.0000 	    1.0000 	   52.4810
    1.9608 	   32.7933 	    2.0000 	    1.0000 	   52.7971
    1.8387 	   32.8720 	    2.0000 	    1.0000 	   53.1121
    1.9303 	   32.9505 	    2.0000 	    1.0000 	   53.4261
    1.8082 	   33.0303 	    2.0000 	    1.0000 	   53.7451
    1.8692 	   33.1098 	    2.0000 	    1.0000 	   54.0631
    1.9150 	   33.1845 	    2.0000 	    1.0000 	   54.3621
    1.7624 	   33.2605 	    2.0000 	    1.0000 	   54.6662
    1.8540 	   33.3403 	    2.0000 	    1.0000 	   54.9852
    1.7777 	   33.4155 	    2.0000 	    1.0000 	   55.2862
    1.8845 	   33.4905 	    2.0000 	    1.0000 	   55.5862
    1.9608 	   33.5708 	    2.0000 	    1.0000 	   55.9072
    1.9303 	   33.6458 	    2.0000 	    1.0000 	   56.2073
    1.8387 	   33.7230 	    2.0000 	    1.0000 	   56.5163
    1.9455 	   33.8055 	    2.0000 	    1.0000 	   56.8463
    1.8997 	   33.8838 	    2.0000 	    1.0000 	   57.1593
    1.8082 	   33.9615 	    2.0000 	    1.0000 	   57.4703
    1.8540 	   34.0420 	    2.0000 	    1.0000 	   57.7923
    1.9150 	   34.1183 	    2.0000 	    1.0000 	   58.0974
    1.9455 	   34.1988 	    2.0000 	    1.0000 	   58.4194
    1.7777 	   34.2747 	    2.0000 	    1.0000 	   58.7234
    1.8082 	   34.3550 	    2.0000 	    1.0000 	   59.0444
    1.8082 	   34.4303 	    2.0000 	    1.0000 	   59.3454
    1.8540 	   34.5085 	    2.0000 	    1.0000 	   59.6585
    1.8997 	   34.5848 	    2.0000 	    1.0000 	   59.9635
    1.8845 	   34.6678 	    2.0000 	    2.0000 	    0.2955
    1.9303 	   34.7465 	    2.0000 	    2.0000 	    0.6105
    1.7624 	   34.8243 	    2.0000 	    2.0000 	    0.9215
    1.9303 	   34.9035 	    2.0000 	    2.0000 	    1.2385
    1.8540 	   34.9827 	    2.0000 	    2.0000 	    1.5556
    1.8235 	   35.0623 	    2.0000 	    2.0000 	    1.8736
    1.9150 	   35.1430 	    2.0000 	    2.0000 	    2.1966
    1.9303 	   35.2225 	    2.0000 	    2.0000 	    2.5146
    1.4420 	   35.3038 	    2.0000 	    2.0000 	    2.8396
    1.5488 	   35.3840 	    2.0000 	    2.0000 	    3.1606
    1.8387 	   35.4640 	    2.0000 	    2.0000 	    3.4807
    1.9150 	   35.5433 	    2.0000 	    2.0000 	    3.7977
    1.6861 	   35.6223 	    2.0000 	    2.0000 	    4.1137
    1.9455 	   35.7013 	    2.0000 	    2.0000 	    4.4297
    1.7929 	   35.7805 	    2.0000 	    2.0000 	    4.7467
    1.7929 	   35.8565 	    2.0000 	    2.0000 	    5.0508
    1.8387 	   35.9358 	    2.0000 	    2.0000 	    5.3678
    1.8845 	   36.0130 	    2.0000 	    2.0000 	    5.6768
    1.5793 	   36.0930 	    2.0000 	    2.0000 	    5.9968
    1.5183 	   36.1705 	    2.0000 	    2.0000 	    6.3068
    1.8845 	   36.2470 	    2.0000 	    2.0000 	    6.6128
    1.7472 	   36.3235 	    2.0000 	    2.0000 	    6.9189
    1.8235 	   36.4025 	    2.0000 	    2.0000 	    7.2349
    1.8082 	   36.4845 	    2.0000 	    2.0000 	    7.5629
    1.8082 	   36.5643 	    2.0000 	    2.0000 	    7.8819
    1.9608 	   36.6413 	    2.0000 	    2.0000 	    8.1899
    1.7472 	   36.7210 	    2.0000 	    2.0000 	    8.5090
    1.8845 	   36.7995 	    2.0000 	    2.0000 	    8.8230
    1.8845 	   36.8770 	    2.0000 	    2.0000 	    9.1320
    1.8387 	   36.9550 	    2.0000 	    2.0000 	    9.4440
    1.7472 	   37.0360 	    2.0000 	    2.0000 	    9.7680
    1.8387 	   37.1203 	    2.0000 	    2.0000 	   10.1050
    1.7166 	   37.1985 	    2.0000 	    2.0000 	   10.4181
    1.7929 	   37.2775 	    2.0000 	    2.0000 	   10.7341
    1.7624 	   37.3570 	    2.0000 	    2.0000 	   11.0521
    1.7624 	   37.4375 	    2.0000 	    2.0000 	   11.3741
    1.5488 	   37.5155 	    2.0000 	    2.0000 	   11.6861
    1.6709 	   37.5943 	    2.0000 	    2.0000 	   12.0012
    1.5335 	   37.6733 	    2.0000 	    2.0000 	   12.3172
    1.6251 	   37.7530 	    2.0000 	    2.0000 	   12.6362
    1.5640 	   37.8308 	    2.0000 	    2.0000 	   12.9472
    1.5640 	   37.9103 	    2.0000 	    2.0000 	   13.2652
    1.6403 	   37.9953 	    2.0000 	    2.0000 	   13.6052
    1.5030 	   38.0773 	    2.0000 	    2.0000 	   13.9333
    1.3809 	   38.1590 	    2.0000 	    2.0000 	   14.2603
    1.4572 	   38.2400 	    2.0000 	    2.0000 	   14.5843
    1.3504 	   38.3198 	    2.0000 	    2.0000 	   14.9033
    1.4725 	   38.4023 	    2.0000 	    2.0000 	   15.2333
    1.3352 	   38.4825 	    2.0000 	    2.0000 	   15.5544
    1.2589 	   38.5683 	    2.0000 	    2.0000 	   15.8974
    1.3046 	   38.6543 	    2.0000 	    2.0000 	   16.2414
    1.2894 	   38.7340 	    2.0000 	    2.0000 	   16.5604
    1.1978 	   38.8145 	    2.0000 	    2.0000 	   16.8824
    0.9232 	   38.8953 	    2.0000 	    2.0000 	   17.2055
    1.1978 	   38.9818 	    2.0000 	    2.0000 	   17.5515
    1.2894 	   39.0685 	    2.0000 	    2.0000 	   17.8985
    1.2741 	   39.1523 	    2.0000 	    2.0000 	   18.2335
    1.2131 	   39.2380 	    2.0000 	    2.0000 	   18.5765
    1.1215 	   39.3253 	    2.0000 	    2.0000 	   18.9256
    1.1826 	   39.4093 	    2.0000 	    2.0000 	   19.2616
    1.2131 	   39.4920 	    2.0000 	    2.0000 	   19.5926
    0.7858 	   39.5723 	    2.0000 	    2.0000 	   19.9136
    1.2131 	   39.6530 	    2.0000 	    2.0000 	   20.2366
    1.1521 	   39.7365 	    2.0000 	    2.0000 	   20.5706
    1.0758 	   39.8188 	    2.0000 	    2.0000 	   20.8997
    0.9995 	   39.9005 	    2.0000 	    2.0000 	   21.2267
    1.1521 	   39.9820 	    2.0000 	    2.0000 	   21.5527
    1.2284 	   40.0648 	    2.0000 	    2.0000 	   21.8837
    1.0452 	   40.1445 	    2.0000 	    2.0000 	   22.2027
    1.0910 	   40.2240 	    2.0000 	    2.0000 	   22.5208
    0.8469 	   40.3080 	    2.0000 	    2.0000 	   22.8568
    1.1063 	   40.3943 	    2.0000 	    2.0000 	   23.2018
    0.9232 	   40.4768 	    2.0000 	    2.0000 	   23.5318
    0.8621 	   40.5588 	    2.0000 	    2.0000 	   23.8598
    1.0605 	   40.6410 	    2.0000 	    2.0000 	   24.1889
    0.8927 	   40.7260 	    2.0000 	    2.0000 	   24.5289
    0.8164 	   40.8095 	    2.0000 	    2.0000 	   24.8629
    0.9384 	   40.8903 	    2.0000 	    2.0000 	   25.1859
    0.7858 	   40.9760 	    2.0000 	    2.0000 	   25.5289
    0.7706 	   41.0568 	    2.0000 	    2.0000 	   25.8519
    0.6943 	   41.1438 	    2.0000 	    2.0000 	   26.2000
    0.6790 	   41.2278 	    2.0000 	    2.0000 	   26.5360
    0.6485 	   41.3125 	    2.0000 	    2.0000 	   26.8740
    0.7095 	   41.3925 	    2.0000 	    2.0000 	   27.1940
    0.6790 	   41.4773 	    2.0000 	    2.0000 	   27.5330
    0.6943 	   41.5625 	    2.0000 	    2.0000 	   27.8741
    0.6332 	   41.6430 	    2.0000 	    2.0000 	   28.1961
    0.7095 	   41.7248 	    2.0000 	    2.0000 	   28.5231
    0.6790 	   41.8075 	    2.0000 	    2.0000 	   28.8541
    0.6180 	   41.8905 	    2.0000 	    2.0000 	   29.1861
    0.6790 	   41.9725 	    2.0000 	    2.0000 	   29.5142
    0.6027 	   42.0558 	    2.0000 	    2.0000 	   29.8472
    0.7095 	   42.1390 	    2.0000 	    2.0000 	   30.1802
    0.7706 	   42.2245 	    2.0000 	    2.0000 	   30.5222
    0.5264 	   42.3088 	    2.0000 	    2.0000 	   30.8582
    0.6332 	   42.3915 	    2.0000 	    2.0000 	   31.1903
    0.5417 	   42.4760 	    2.0000 	    2.0000 	   31.5283
    0.4501 	   42.5583 	    2.0000 	    2.0000 	   31.8573
    0.1602 	   42.6413 	    2.0000 	    2.0000 	   32.1893
    0.6180 	   42.7235 	    2.0000 	    2.0000 	   32.5183
    0.5112 	   42.8058 	    2.0000 	    2.0000 	   32.8473
    0.6332 	   42.8898 	    2.0000 	    2.0000 	   33.1834
    0.4044 	   42.9725 	    2.0000 	    2.0000 	   33.5144
    0.3281 	   43.0575 	    2.0000 	    2.0000 	   33.8544
    0.3128 	   43.1408 	    2.0000 	    2.0000 	   34.1874
    0.4044 	   43.2228 	    2.0000 	    2.0000 	   34.5154
    0.4044 	   43.3060 	    2.0000 	    2.0000 	   34.8485
    0.4349 	   43.3888 	    2.0000 	    2.0000 	   35.1795
    0.3128 	   43.4718 	    2.0000 	    2.0000 	   35.5115
    0.2213 	   43.5568 	    2.0000 	    2.0000 	   35.8515
    0.1755 	   43.6445 	    2.0000 	    2.0000 	   36.2025
    0.1755 	   43.7335 	    2.0000 	    2.0000 	   36.5586
    0.2518 	   43.8205 	    2.0000 	    2.0000 	   36.9066
    0.2976 	   43.9045 	    2.0000 	    2.0000 	   37.2426
    0.2976 	   43.9875 	    2.0000 	    2.0000 	   37.5746
    0.2213 	   44.0750 	    2.0000 	    2.0000 	   37.9246
    0.2365 	   44.1613 	    2.0000 	    2.0000 	   38.2697
    0.1602 	   44.2440 	    2.0000 	    2.0000 	   38.6007
    0.1297 	   44.3298 	    2.0000 	    2.0000 	   38.9437
    0.1907 	   44.4153 	    2.0000 	    2.0000 	   39.2857
    0.1297 	   44.5015 	    2.0000 	    2.0000 	   39.6307
    0.1297 	   44.5890 	    2.0000 	    2.0000 	   39.9808
    0.1450 	   44.6733 	    2.0000 	    2.0000 	   40.3178
    0.3433 	   44.7590 	    2.0000 	    2.0000 	   40.6608
    0.1450 	   44.8485 	    2.0000 	    2.0000 	   41.0188
    0.1907 	   44.9315 	    2.0000 	    2.0000 	   41.3508
    0.0992 	   45.0148 	    2.0000 	    2.0000 	   41.6839
    0.1144 	   45.1040 	    2.0000 	    2.0000 	   42.0409
    0.0992 	   45.1888 	    2.0000 	    2.0000 	   42.3799
    0.1907 	   45.2745 	    2.0000 	    2.0000 	   42.7229
    0.0839 	   45.3608 	    2.0000 	    2.0000 	   43.0679
    0.1907 	   45.4468 	    2.0000 	    2.0000 	   43.4120
    0.1297 	   45.5358 	    2.0000 	    2.0000 	   43.7670
    0.2823 	   45.6245 	    2.0000 	    2.0000 	   44.1220
    0.1297 	   45.7088 	    2.0000 	    2.0000 	   44.4590
    0.0229 	   45.7930 	    2.0000 	    2.0000 	   44.7960
    0.0534 	   45.8830 	    2.0000 	    2.0000 	   45.1561
    0.2670 	   45.9670 	    2.0000 	    2.0000 	   45.4921
    0.0992 	   46.0535 	    2.0000 	    2.0000 	   45.8381
    0.0992 	   46.1443 	    2.0000 	    2.0000 	   46.2011
    0.1144 	   46.2303 	    2.0000 	    2.0000 	   46.5451
    0.0534 	   46.3165 	    2.0000 	    2.0000 	   46.8902
    0.2365 	   46.4020 	    2.0000 	    2.0000 	   47.2322
    0.1450 	   46.4908 	    2.0000 	    2.0000 	   47.5872
    0.1602 	   46.5758 	    2.0000 	    2.0000 	   47.9272
    0.0992 	   46.6598 	    2.0000 	    2.0000 	   48.2632
    0.0229 	   46.7433 	    2.0000 	    2.0000 	   48.5972
    0.1602 	   46.8285 	    2.0000 	    2.0000 	   48.9383
    0.0992 	   46.9170 	    2.0000 	    2.0000 	   49.2923
    0.1297 	   47.0043 	    2.0000 	    2.0000 	   49.6413
    0.0534 	   47.0903 	    2.0000 	    2.0000 	   49.9853
    0.3281 	   47.1778 	    2.0000 	    2.0000 	   50.3354
   -0.0076 	   47.2685 	    2.0000 	    2.0000 	   50.6984
    0.1602 	   47.3578 	    2.0000 	    2.0000 	   51.0554
    0.1907 	   47.4478 	    2.0000 	    2.0000 	   51.4154
    0.0534 	   47.5348 	    2.0000 	    2.0000 	   51.7634
   -0.0534 	   47.6208 	    2.0000 	    2.0000 	   52.1074
    0.1907 	   47.7095 	    2.0000 	    2.0000 	   52.4625
    0.0229 	   47.7973 	    2.0000 	    2.0000 	   52.8135
    0.1450 	   47.8853 	    2.0000 	    2.0000 	   53.1655
    0.1602 	   47.9725 	    2.0000 	    2.0000 	   53.5145
    0.0992 	   48.0600 	    2.0000 	    2.0000 	   53.8646
    0.0687 	   48.1488 	    2.0000 	    2.0000 	   54.2196
   -0.2060 	   48.2340 	    2.0000 	    2.0000 	   54.5606
    0.1144 	   48.3178 	    2.0000 	    2.0000 	   54.8956
   -0.0381 	   48.4013 	    2.0000 	    2.0000 	   55.2296
    0.0229 	   48.4853 	    2.0000 	    2.0000 	   55.5656
    0.0992 	   48.5698 	    2.0000 	    2.0000 	   55.9037
    0.1755 	   48.6538 	    2.0000 	    2.0000 	   56.2397
    0.0381 	   48.7383 	    2.0000 	    2.0000 	   56.5777
    0.0534 	   48.8233 	    2.0000 	    2.0000 	   56.9177
    0.0839 	   48.9083 	    2.0000 	    2.0000 	   57.2577
    0.2823 	   48.9933 	    2.0000 	    2.0000 	   57.5978
    0.2670 	   49.0788 	    2.0000 	    2.0000 	   57.9398
    0.1602 	   49.1638 	    2.0000 	    2.0000 	   58.2798
    0.1297 	   49.2483 	    2.0000 	    2.0000 	   58.6178
    0.2518 	   49.3335 	    2.0000 	    2.0000 	   58.9588
    0.1450 	   49.4203 	    2.0000 	    2.0000 	   59.3059
    0.0229 	   49.5058 	    2.0000 	    2.0000 	   59.6479
    0.0076 	   49.5918 	    2.0000 	    2.0000 	   59.9919
   -0.2060 	   49.6808 	    2.0000 	    3.0000 	    0.3479
   -0.1144 	   49.7675 	    2.0000 	    3.0000 	    0.6949
    0.0534 	   49.8570 	    2.0000 	    3.0000 	    1.0530
    0.0992 	   49.9468 	    2.0000 	    3.0000 	    1.4120
    0.1602 	   50.0378 	    2.0000 	    3.0000 	    1.7750
    0.0687 	   50.1243 	    2.0000 	    3.0000 	    2.1210
    0.1907 	   50.2118 	    2.0000 	    3.0000 	    2.4710
    0.2365 	   50.2993 	    2.0000 	    3.0000 	    2.8211
   -0.1755 	   50.3868 	    2.0000 	    3.0000 	    3.1711
    0.1297 	   50.4778 	    2.0000 	    3.0000 	    3.5351
    0.1144 	   50.5670 	    2.0000 	    3.0000 	    3.8921
    0.0992 	   50.6593 	    2.0000 	    3.0000 	    4.2611
    0.2060 	   50.7508 	    2.0000 	    3.0000 	    4.6272
    0.1297 	   50.8415 	    2.0000 	    3.0000 	    4.9902
    0.2365 	   50.9293 	    2.0000 	    3.0000 	    5.3412
    0.0381 	   51.0230 	    2.0000 	    3.0000 	    5.7162
    0.0076 	   51.1168 	    2.0000 	    3.0000 	    6.0912
    0.0992 	   51.2055 	    2.0000 	    3.0000 	    6.4463
    0.1144 	   51.2925 	    2.0000 	    3.0000 	    6.7943
    0.1602 	   51.3798 	    2.0000 	    3.0000 	    7.1433
    0.0381 	   51.4683 	    2.0000 	    3.0000 	    7.4973
    0.1907 	   51.5548 	    2.0000 	    3.0000 	    7.8433
   -0.0534 	   51.6448 	    2.0000 	    3.0000 	    8.2034
    0.0992 	   51.7348 	    2.0000 	    3.0000 	    8.5634
   -0.0076 	   51.8240 	    2.0000 	    3.0000 	    8.9204
    0.1602 	   51.9115 	    2.0000 	    3.0000 	    9.2704
    0.0839 	   52.0038 	    2.0000 	    3.0000 	    9.6395
    0.2213 	   52.0930 	    2.0000 	    3.0000 	    9.9965
    0.2670 	   52.1815 	    2.0000 	    3.0000 	   10.3505
    0.1602 	   52.2693 	    2.0000 	    3.0000 	   10.7015
    0.1755 	   52.3590 	    2.0000 	    3.0000 	   11.0605
    0.1144 	   52.4528 	    2.0000 	    3.0000 	   11.4356
    0.3281 	   52.5445 	    2.0000 	    3.0000 	   11.8026
    0.0992 	   52.6353 	    2.0000 	    3.0000 	   12.1656
    0.2060 	   52.7228 	    2.0000 	    3.0000 	   12.5156
    0.1144 	   52.8125 	    2.0000 	    3.0000 	   12.8746
    0.2213 	   52.9045 	    2.0000 	    3.0000 	   13.2427
    0.1602 	   52.9938 	    2.0000 	    3.0000 	   13.5997
    0.1297 	   53.0828 	    2.0000 	    3.0000 	   13.9557
    0.2518 	   53.1708 	    2.0000 	    3.0000 	   14.3077
    0.2823 	   53.2603 	    2.0000 	    3.0000 	   14.6657
    0.1297 	   53.3535 	    2.0000 	    3.0000 	   15.0388
    0.1602 	   53.4500 	    2.0000 	    3.0000 	   15.4248
    0.0992 	   53.5448 	    2.0000 	    3.0000 	   15.8038
    0.1450 	   53.6355 	    2.0000 	    3.0000 	   16.1668
    0.1297 	   53.7245 	    2.0000 	    3.0000 	   16.5228
    0.0534 	   53.8163 	    2.0000 	    3.0000 	   16.8899
    0.2976 	   53.9078 	    2.0000 	    3.0000 	   17.2559
    0.2670 	   53.9983 	    2.0000 	    3.0000 	   17.6179
    0.0381 	   54.0918 	    2.0000 	    3.0000 	   17.9919
    0.2823 	   54.1863 	    2.0000 	    3.0000 	   18.3700
    0.0839 	   54.2815 	    2.0000 	    3.0000 	   18.7510
    0.0687 	   54.3740 	    2.0000 	    3.0000 	   19.1200
    0.2670 	   54.4658 	    2.0000 	    3.0000 	   19.4870
    0.0229 	   54.5615 	    2.0000 	    3.0000 	   19.8700
   -0.0687 	   54.6558 	    2.0000 	    3.0000 	   20.2471
    0.0839 	   54.7490 	    2.0000 	    3.0000 	   20.6201
    0.0534 	   54.8393 	    2.0000 	    3.0000 	   20.9811
    0.0687 	   54.9358 	    2.0000 	    3.0000 	   21.3671
    0.1144 	   55.0305 	    2.0000 	    3.0000 	   21.7461
    0.0534 	   55.1215 	    2.0000 	    3.0000 	   22.1102
    0.0992 	   55.2138 	    2.0000 	    3.0000 	   22.4792
    0.1755 	   55.3048 	    2.0000 	    3.0000 	   22.8432
   -0.0687 	   55.3955 	    2.0000 	    3.0000 	   23.2062
    0.0992 	   55.4905 	    2.0000 	    3.0000 	   23.5863
    0.1144 	   55.5825 	    2.0000 	    3.0000 	   23.9543
   -0.1297 	   55.6733 	    2.0000 	    3.0000 	   24.3173
   -0.1144 	   55.7630 	    2.0000 	    3.0000 	   24.6763
   -0.0687 	   55.8553 	    2.0000 	    3.0000 	   25.0453
    0.0687 	   55.9470 	    2.0000 	    3.0000 	   25.4124
    0.1755 	   56.0405 	    2.0000 	    3.0000 	   25.7864
    0.1755 	   56.1328 	    2.0000 	    3.0000 	   26.1554
    0.1144 	   56.2265 	    2.0000 	    3.0000 	   26.5304
   -0.2365 	   56.3190 	    2.0000 	    3.0000 	   26.9004
    0.0992 	   56.4135 	    2.0000 	    3.0000 	   27.2785
    0.1144 	   56.5105 	    2.0000 	    3.0000 	   27.6665
    0.2365 	   56.6083 	    2.0000 	    3.0000 	   28.0575
    0.3433 	   56.7023 	    2.0000 	    3.0000 	   28.4335
    0.1602 	   56.7988 	    2.0000 	    3.0000 	   28.8195
   -0.1755 	   56.8940 	    2.0000 	    3.0000 	   29.2006
    0.2670 	   56.9918 	    2.0000 	    3.0000 	   29.5916
    0.1450 	   57.0878 	    2.0000 	    3.0000 	   29.9756
    0.0076 	   57.1805 	    2.0000 	    3.0000 	   30.3466
    0.0992 	   57.2748 	    2.0000 	    3.0000 	   30.7237
    0.0534 	   57.3693 	    2.0000 	    3.0000 	   31.1017
    0.2060 	   57.4645 	    2.0000 	    3.0000 	   31.4827
    0.1144 	   57.5563 	    2.0000 	    3.0000 	   31.8497