File: instron/10_grey_3W15L_drag30_spd15.txt
Thayer School of Engineering        Instron 4442 Mechanical Testing System
6/28/2018 1:20:37 AM

  Force (N)	Extension (mm)	Not Used	Not Used	Not Used	     Hour	    Minute	    Second
    0.1450 	    0.2558 	    1.0000 	   21.0000 	    3.5750
    0.1907 	    0.3923 	    1.0000 	   21.0000 	    4.1210
    0.2365 	    0.5085 	    1.0000 	   21.0000 	    4.5860
    0.2213 	    0.6345 	    1.0000 	   21.0000 	    5.0901
    0.0687 	    0.7423 	    1.0000 	   21.0000 	    5.5211
    0.0534 	    0.8478 	    1.0000 	   21.0000 	    5.9431
    0.1755 	    0.9360 	    1.0000 	   21.0000 	    6.2961
    0.4044 	    1.0190 	    1.0000 	   21.0000 	    6.6281
    0.3738 	    1.1055 	    1.0000 	   21.0000 	    6.9742
    0.2670 	    1.1883 	    1.0000 	   21.0000 	    7.3052
    0.1907 	    1.2698 	    1.0000 	   21.0000 	    7.6312
    0.3281 	    1.3495 	    1.0000 	   21.0000 	    7.9502
    0.1907 	    1.4300 	    1.0000 	   21.0000 	    8.2722
    0.1907 	    1.5103 	    1.0000 	   21.0000 	    8.5933
    0.2365 	    1.5910 	    1.0000 	   21.0000 	    8.9163
    0.4959 	    1.6728 	    1.0000 	   21.0000 	    9.2433
    0.3433 	    1.7540 	    1.0000 	   21.0000 	    9.5683
    0.2823 	    1.8353 	    1.0000 	   21.0000 	    9.8933
    0.3586 	    1.9198 	    1.0000 	   21.0000 	   10.2313
    0.3586 	    1.9975 	    1.0000 	   21.0000 	   10.5424
    0.3891 	    2.0790 	    1.0000 	   21.0000 	   10.8684
    0.3586 	    2.1595 	    1.0000 	   21.0000 	   11.1904
    0.4807 	    2.2393 	    1.0000 	   21.0000 	   11.5094
    0.3738 	    2.3195 	    1.0000 	   21.0000 	   11.8304
    0.3891 	    2.3998 	    1.0000 	   21.0000 	   12.1505
    0.3433 	    2.4818 	    1.0000 	   21.0000 	   12.4785
    0.5570 	    2.5713 	    1.0000 	   21.0000 	   12.8365
    0.5112 	    2.6510 	    1.0000 	   21.0000 	   13.1555
    0.4501 	    2.7348 	    1.0000 	   21.0000 	   13.4905
    0.6027 	    2.8150 	    1.0000 	   21.0000 	   13.8116
    0.5570 	    2.8970 	    1.0000 	   21.0000 	   14.1396
    0.6943 	    2.9773 	    1.0000 	   21.0000 	   14.4606
    0.4196 	    3.0585 	    1.0000 	   21.0000 	   14.7856
    0.6485 	    3.1395 	    1.0000 	   21.0000 	   15.1096
    0.6638 	    3.2203 	    1.0000 	   21.0000 	   15.4326
    0.4807 	    3.3020 	    1.0000 	   21.0000 	   15.7597
    0.4349 	    3.3833 	    1.0000 	   21.0000 	   16.0847
    0.6485 	    3.4653 	    1.0000 	   21.0000 	   16.4127
    0.8011 	    3.5478 	    1.0000 	   21.0000 	   16.7427
    0.8469 	    3.6290 	    1.0000 	   21.0000 	   17.0677
    0.8774 	    3.7108 	    1.0000 	   21.0000 	   17.3948
    0.7401 	    3.7918 	    1.0000 	   21.0000 	   17.7188
    0.5570 	    3.8730 	    1.0000 	   21.0000 	   18.0438
    0.8621 	    3.9568 	    1.0000 	   21.0000 	   18.3788
    1.0300 	    4.0390 	    1.0000 	   21.0000 	   18.7078
    1.0605 	    4.1220 	    1.0000 	   21.0000 	   19.0399
    1.0300 	    4.2035 	    1.0000 	   21.0000 	   19.3659
    0.8927 	    4.2870 	    1.0000 	   21.0000 	   19.6999
    1.0147 	    4.3718 	    1.0000 	   21.0000 	   20.0389
    0.8927 	    4.4565 	    1.0000 	   21.0000 	   20.3779
    0.9995 	    4.5375 	    1.0000 	   21.0000 	   20.7020
    1.1368 	    4.6218 	    1.0000 	   21.0000 	   21.0390
    1.1521 	    4.7048 	    1.0000 	   21.0000 	   21.3710
    1.1063 	    4.7873 	    1.0000 	   21.0000 	   21.7010
    1.1063 	    4.8800 	    1.0000 	   21.0000 	   22.0710
    1.0605 	    4.9638 	    1.0000 	   21.0000 	   22.4070
    1.2436 	    5.0465 	    1.0000 	   21.0000 	   22.7381
    1.2131 	    5.1300 	    1.0000 	   21.0000 	   23.0721
    1.2284 	    5.2133 	    1.0000 	   21.0000 	   23.4051
    1.2589 	    5.2990 	    1.0000 	   21.0000 	   23.7481
    1.2131 	    5.3840 	    1.0000 	   21.0000 	   24.0881
    1.2131 	    5.4675 	    1.0000 	   21.0000 	   24.4222
    1.3352 	    5.5515 	    1.0000 	   21.0000 	   24.7582
    1.3046 	    5.6365 	    1.0000 	   21.0000 	   25.0982
    1.4267 	    5.7178 	    1.0000 	   21.0000 	   25.4232
    1.3809 	    5.8010 	    1.0000 	   21.0000 	   25.7562
    1.3352 	    5.8878 	    1.0000 	   21.0000 	   26.1033
    1.2436 	    5.9723 	    1.0000 	   21.0000 	   26.4413
    1.3504 	    6.0573 	    1.0000 	   21.0000 	   26.7813
    1.3809 	    6.1430 	    1.0000 	   21.0000 	   27.1243
    1.3504 	    6.2295 	    1.0000 	   21.0000 	   27.4703
    1.3504 	    6.3123 	    1.0000 	   21.0000 	   27.8014
    1.5335 	    6.3970 	    1.0000 	   21.0000 	   28.1404
    1.5793 	    6.4828 	    1.0000 	   21.0000 	   28.4834
    1.4878 	    6.5690 	    1.0000 	   21.0000 	   28.8284
    1.4878 	    6.6545 	    1.0000 	   21.0000 	   29.1704
    1.5946 	    6.7390 	    1.0000 	   21.0000 	   29.5085
    1.3962 	    6.8245 	    1.0000 	   21.0000 	   29.8495
    1.5335 	    6.9098 	    1.0000 	   21.0000 	   30.1905
    1.5335 	    6.9953 	    1.0000 	   21.0000 	   30.5325
    1.3809 	    7.0823 	    1.0000 	   21.0000 	   30.8805
    1.4572 	    7.1603 	    1.0000 	   21.0000 	   31.1925
    1.4878 	    7.2438 	    1.0000 	   21.0000 	   31.5266
    1.5793 	    7.3280 	    1.0000 	   21.0000 	   31.8636
    1.6251 	    7.4155 	    1.0000 	   21.0000 	   32.2136
    1.7777 	    7.5013 	    1.0000 	   21.0000 	   32.5566
    1.5335 	    7.5878 	    1.0000 	   21.0000 	   32.9026
    1.6556 	    7.6760 	    1.0000 	   21.0000 	   33.2557
    1.4572 	    7.7620 	    1.0000 	   21.0000 	   33.5997
    1.7472 	    7.8505 	    1.0000 	   21.0000 	   33.9537
    1.6709 	    7.9408 	    1.0000 	   21.0000 	   34.3147
    1.7624 	    8.0278 	    1.0000 	   21.0000 	   34.6627
    1.7777 	    8.1150 	    1.0000 	   21.0000 	   35.0118
    1.7319 	    8.2030 	    1.0000 	   21.0000 	   35.3638
    1.6709 	    8.2905 	    1.0000 	   21.0000 	   35.7138
    1.7777 	    8.3798 	    1.0000 	   21.0000 	   36.0708
    1.9150 	    8.4693 	    1.0000 	   21.0000 	   36.4288
    1.7777 	    8.5568 	    1.0000 	   21.0000 	   36.7789
    1.8082 	    8.6458 	    1.0000 	   21.0000 	   37.1349
    1.8692 	    8.7335 	    1.0000 	   21.0000 	   37.4859
    1.8845 	    8.8228 	    1.0000 	   21.0000 	   37.8429
    1.7624 	    8.9120 	    1.0000 	   21.0000 	   38.2000
    1.7166 	    9.0005 	    1.0000 	   21.0000 	   38.5540
    1.9455 	    9.0895 	    1.0000 	   21.0000 	   38.9100
    1.8082 	    9.1788 	    1.0000 	   21.0000 	   39.2670
    1.9455 	    9.2693 	    1.0000 	   21.0000 	   39.6290
    1.6251 	    9.3590 	    1.0000 	   21.0000 	   39.9881
    1.8845 	    9.4520 	    1.0000 	   21.0000 	   40.3601
    1.9303 	    9.5398 	    1.0000 	   21.0000 	   40.7111
    1.9455 	    9.6308 	    1.0000 	   21.0000 	   41.0751
    1.8997 	    9.7198 	    1.0000 	   21.0000 	   41.4311
    1.8845 	    9.8043 	    1.0000 	   21.0000 	   41.7692
    1.8997 	    9.8903 	    1.0000 	   21.0000 	   42.1132
    2.0523 	    9.9800 	    1.0000 	   21.0000 	   42.4722
    1.9760 	   10.0710 	    1.0000 	   21.0000 	   42.8362
    2.1439 	   10.1623 	    1.0000 	   21.0000 	   43.2012
    1.9913 	   10.2528 	    1.0000 	   21.0000 	   43.5633
    2.2202 	   10.3355 	    1.0000 	   21.0000 	   43.8943
    2.1592 	   10.4250 	    1.0000 	   21.0000 	   44.2523
    1.9760 	   10.5120 	    1.0000 	   21.0000 	   44.6003
    2.0981 	   10.6025 	    1.0000 	   21.0000 	   44.9623
    2.0676 	   10.6943 	    1.0000 	   21.0000 	   45.3294
    2.1897 	   10.7848 	    1.0000 	   21.0000 	   45.6914
    1.9913 	   10.8798 	    1.0000 	   21.0000 	   46.0714
    2.1439 	   10.9703 	    1.0000 	   21.0000 	   46.4334
    2.1439 	   11.0633 	    1.0000 	   21.0000 	   46.8054
    2.3270 	   11.1558 	    1.0000 	   21.0000 	   47.1755
    2.0829 	   11.2485 	    1.0000 	   21.0000 	   47.5455
    1.9913 	   11.3393 	    1.0000 	   21.0000 	   47.9085
    2.3575 	   11.4320 	    1.0000 	   21.0000 	   48.2795
    2.3270 	   11.5225 	    1.0000 	   21.0000 	   48.6415
    2.2507 	   11.6158 	    1.0000 	   21.0000 	   49.0146
    2.0829 	   11.7085 	    1.0000 	   21.0000 	   49.3856
    2.1897 	   11.8015 	    1.0000 	   21.0000 	   49.7576
    2.3270 	   11.8930 	    1.0000 	   21.0000 	   50.1236
    2.2965 	   11.9833 	    1.0000 	   21.0000 	   50.4847
    2.2660 	   12.0748 	    1.0000 	   21.0000 	   50.8507
    2.3575 	   12.1675 	    1.0000 	   21.0000 	   51.2217
    2.3423 	   12.2573 	    1.0000 	   21.0000 	   51.5807
    2.3270 	   12.3465 	    1.0000 	   21.0000 	   51.9377
    2.0981 	   12.4288 	    1.0000 	   21.0000 	   52.2668
    2.2660 	   12.5103 	    1.0000 	   21.0000 	   52.5928
    2.5101 	   12.5925 	    1.0000 	   21.0000 	   52.9218
    2.3728 	   12.6788 	    1.0000 	   21.0000 	   53.2668
    2.4186 	   12.7648 	    1.0000 	   21.0000 	   53.6108
    2.3575 	   12.8528 	    1.0000 	   21.0000 	   53.9629
    2.4643 	   12.9478 	    1.0000 	   21.0000 	   54.3429
    2.3728 	   13.0415 	    1.0000 	   21.0000 	   54.7179
    2.4338 	   13.1360 	    1.0000 	   21.0000 	   55.0959
    2.4033 	   13.2295 	    1.0000 	   21.0000 	   55.4699
    2.5864 	   13.3233 	    1.0000 	   21.0000 	   55.8450
    2.5406 	   13.4103 	    1.0000 	   21.0000 	   56.1930
    2.3880 	   13.4970 	    1.0000 	   21.0000 	   56.5400
    2.5406 	   13.5878 	    1.0000 	   21.0000 	   56.9030
    2.6627 	   13.6728 	    1.0000 	   21.0000 	   57.2430
    2.5559 	   13.7608 	    1.0000 	   21.0000 	   57.5951
    2.7085 	   13.8580 	    1.0000 	   21.0000 	   57.9841
    2.6322 	   13.9570 	    1.0000 	   21.0000 	   58.3801
    2.5406 	   14.0533 	    1.0000 	   21.0000 	   58.7651
    2.5406 	   14.1478 	    1.0000 	   21.0000 	   59.1431
    2.6932 	   14.2430 	    1.0000 	   21.0000 	   59.5242
    2.7085 	   14.3288 	    1.0000 	   21.0000 	   59.8672
    2.7085 	   14.4230 	    1.0000 	   22.0000 	    0.2442
    2.7543 	   14.5145 	    1.0000 	   22.0000 	    0.6102
    2.5864 	   14.6098 	    1.0000 	   22.0000 	    0.9913
    2.6474 	   14.7038 	    1.0000 	   22.0000 	    1.3673
    2.8916 	   14.7983 	    1.0000 	   22.0000 	    1.7453
    2.9221 	   14.8938 	    1.0000 	   22.0000 	    2.1273
    2.8763 	   14.9898 	    1.0000 	   22.0000 	    2.5113
    2.7085 	   15.0873 	    1.0000 	   22.0000 	    2.9014
    2.7390 	   15.1808 	    1.0000 	   22.0000 	    3.2754
    2.7390 	   15.2755 	    1.0000 	   22.0000 	    3.6544
    2.9526 	   15.3705 	    1.0000 	   22.0000 	    4.0344
    2.8153 	   15.4555 	    1.0000 	   22.0000 	    4.3744
    2.8611 	   15.5443 	    1.0000 	   22.0000 	    4.7285
    2.8000 	   15.6408 	    1.0000 	   22.0000 	    5.1145
    2.9831 	   15.7373 	    1.0000 	   22.0000 	    5.5005
    2.9374 	   15.8323 	    1.0000 	   22.0000 	    5.8805
    2.8153 	   15.9300 	    1.0000 	   22.0000 	    6.2716
    2.9526 	   16.0270 	    1.0000 	   22.0000 	    6.6596
    2.8611 	   16.1260 	    1.0000 	   22.0000 	    7.0556
    2.9221 	   16.2203 	    1.0000 	   22.0000 	    7.4326
    2.9984 	   16.3118 	    1.0000 	   22.0000 	    7.7986
    3.0137 	   16.4113 	    1.0000 	   22.0000 	    8.1967
    3.0289 	   16.5072 	    1.0000 	   22.0000 	    8.5807
    3.0442 	   16.6065 	    1.0000 	   22.0000 	    8.9777
    3.0137 	   16.7003 	    1.0000 	   22.0000 	    9.3527
    3.0289 	   16.7985 	    1.0000 	   22.0000 	    9.7458
    2.8611 	   16.8965 	    1.0000 	   22.0000 	   10.1378
    2.9831 	   16.9925 	    1.0000 	   22.0000 	   10.5218
    2.9526 	   17.0825 	    1.0000 	   22.0000 	   10.8818
    3.1205 	   17.1788 	    1.0000 	   22.0000 	   11.2668
    3.2120 	   17.2765 	    1.0000 	   22.0000 	   11.6579
    3.0442 	   17.3743 	    1.0000 	   22.0000 	   12.0489
    3.2883 	   17.4668 	    1.0000 	   22.0000 	   12.4189
    3.2731 	   17.5650 	    1.0000 	   22.0000 	   12.8119
    3.1815 	   17.6643 	    1.0000 	   22.0000 	   13.2090
    3.2120 	   17.7630 	    1.0000 	   22.0000 	   13.6040
    3.2578 	   17.8598 	    1.0000 	   22.0000 	   13.9910
    3.3646 	   17.9475 	    1.0000 	   22.0000 	   14.3420
    3.3799 	   18.0365 	    1.0000 	   22.0000 	   14.6980
    3.1205 	   18.1280 	    1.0000 	   22.0000 	   15.0641
    3.2273 	   18.2275 	    1.0000 	   22.0000 	   15.4621
    3.3036 	   18.3278 	    1.0000 	   22.0000 	   15.8631
    3.2578 	   18.4235 	    1.0000 	   22.0000 	   16.2461
    3.3494 	   18.5233 	    1.0000 	   22.0000 	   16.6451
    3.3188 	   18.6233 	    1.0000 	   22.0000 	   17.0452
    3.3188 	   18.7228 	    1.0000 	   22.0000 	   17.4432
    3.4104 	   18.8220 	    1.0000 	   22.0000 	   17.8402
    3.0900 	   18.9185 	    1.0000 	   22.0000 	   18.2262
    3.4409 	   19.0103 	    1.0000 	   22.0000 	   18.5933
    3.4714 	   19.1073 	    1.0000 	   22.0000 	   18.9813
    3.4257 	   19.2083 	    1.0000 	   22.0000 	   19.3853
    3.3951 	   19.3080 	    1.0000 	   22.0000 	   19.7843
    3.5935 	   19.4110 	    1.0000 	   22.0000 	   20.1964
    3.5477 	   19.5075 	    1.0000 	   22.0000 	   20.5824
    3.4714 	   19.6100 	    1.0000 	   22.0000 	   20.9924
    3.4562 	   19.7113 	    1.0000 	   22.0000 	   21.3974
    3.4867 	   19.8108 	    1.0000 	   22.0000 	   21.7954
    3.4867 	   19.9125 	    1.0000 	   22.0000 	   22.2015
    3.5630 	   20.0040 	    1.0000 	   22.0000 	   22.5675
    3.5325 	   20.0995 	    1.0000 	   22.0000 	   22.9495
    3.5782 	   20.1965 	    1.0000 	   22.0000 	   23.3375
    3.4867 	   20.2995 	    1.0000 	   22.0000 	   23.7496
    3.5630 	   20.4023 	    1.0000 	   22.0000 	   24.1606
    3.5935 	   20.5055 	    1.0000 	   22.0000 	   24.5736
    3.6698 	   20.6095 	    1.0000 	   22.0000 	   24.9896
    3.7461 	   20.7058 	    1.0000 	   22.0000 	   25.3746
    3.6545 	   20.8088 	    1.0000 	   22.0000 	   25.7867
    3.6851 	   20.9073 	    1.0000 	   22.0000 	   26.1807
    3.7156 	   21.0100 	    1.0000 	   22.0000 	   26.5917
    3.8071 	   21.1148 	    1.0000 	   22.0000 	   27.0107
    3.7919 	   21.2168 	    1.0000 	   22.0000 	   27.4188
    3.6851 	   21.3193 	    1.0000 	   22.0000 	   27.8288
    3.7308 	   21.4240 	    1.0000 	   22.0000 	   28.2478
    3.8682 	   21.5273 	    1.0000 	   22.0000 	   28.6608
    3.7003 	   21.6298 	    1.0000 	   22.0000 	   29.0709
    3.7919 	   21.7310 	    1.0000 	   22.0000 	   29.4759
    3.8987 	   21.8338 	    1.0000 	   22.0000 	   29.8869
    3.8376 	   21.9303 	    1.0000 	   22.0000 	   30.2729
    3.8071 	   22.0263 	    1.0000 	   22.0000 	   30.6569
    3.7919 	   22.1238 	    1.0000 	   22.0000 	   31.0470
    3.9139 	   22.2233 	    1.0000 	   22.0000 	   31.4450
    3.9597 	   22.3185 	    1.0000 	   22.0000 	   31.8260
    3.9597 	   22.4203 	    1.0000 	   22.0000 	   32.2330
    3.9292 	   22.5200 	    1.0000 	   22.0000 	   32.6321
    4.0055 	   22.6153 	    1.0000 	   22.0000 	   33.0131
    4.1733 	   22.7143 	    1.0000 	   22.0000 	   33.4091
    4.0055 	   22.8145 	    1.0000 	   22.0000 	   33.8101
    3.9292 	   22.9143 	    1.0000 	   22.0000 	   34.2092
    3.9445 	   23.0183 	    1.0000 	   22.0000 	   34.6252
    4.2191 	   23.1143 	    1.0000 	   22.0000 	   35.0092
    4.0970 	   23.2090 	    1.0000 	   22.0000 	   35.3882
    4.0818 	   23.3130 	    1.0000 	   22.0000 	   35.8042
    4.1123 	   23.4120 	    1.0000 	   22.0000 	   36.2003
    4.2191 	   23.5175 	    1.0000 	   22.0000 	   36.6223
    4.0970 	   23.6198 	    1.0000 	   22.0000 	   37.0313
    4.2191 	   23.7143 	    1.0000 	   22.0000 	   37.4093
    3.8834 	   23.8153 	    1.0000 	   22.0000 	   37.8134
    4.2954 	   23.9235 	    1.0000 	   22.0000 	   38.2464
    4.1886 	   24.0280 	    1.0000 	   22.0000 	   38.6644
    4.2954 	   24.1330 	    1.0000 	   22.0000 	   39.0844
    4.2039 	   24.2380 	    1.0000 	   22.0000 	   39.5045
    4.2649 	   24.3423 	    1.0000 	   22.0000 	   39.9205
    4.2954 	   24.4453 	    1.0000 	   22.0000 	   40.3325
    4.2496 	   24.5418 	    1.0000 	   22.0000 	   40.7185
    4.2039 	   24.6403 	    1.0000 	   22.0000 	   41.1125
    4.4938 	   24.7363 	    1.0000 	   22.0000 	   41.4966
    4.4175 	   24.8405 	    1.0000 	   22.0000 	   41.9136
    4.3107 	   24.9420 	    1.0000 	   22.0000 	   42.3196
    4.1733 	   25.0388 	    1.0000 	   22.0000 	   42.7066
    4.3565 	   25.1433 	    1.0000 	   22.0000 	   43.1247
    4.4327 	   25.2508 	    1.0000 	   22.0000 	   43.5547
    4.4633 	   25.3563 	    1.0000 	   22.0000 	   43.9767
    4.4175 	   25.4620 	    1.0000 	   22.0000 	   44.3997
    4.7684 	   25.5603 	    1.0000 	   22.0000 	   44.7928
    4.6921 	   25.6655 	    1.0000 	   22.0000 	   45.2138
    4.4480 	   25.7668 	    1.0000 	   22.0000 	   45.6188
    4.6006 	   25.8738 	    1.0000 	   22.0000 	   46.0468
    4.5090 	   25.9803 	    1.0000 	   22.0000 	   46.4729
    4.6616 	   26.0895 	    1.0000 	   22.0000 	   46.9099
    4.4327 	   26.1893 	    1.0000 	   22.0000 	   47.3089
    4.5243 	   26.2918 	    1.0000 	   22.0000 	   47.7189
    4.7074 	   26.3913 	    1.0000 	   22.0000 	   48.1170
    4.7684 	   26.4960 	    1.0000 	   22.0000 	   48.5360
    4.9058 	   26.6040 	    1.0000 	   22.0000 	   48.9680
    4.7074 	   26.7098 	    1.0000 	   22.0000 	   49.3910
    4.6769 	   26.8170 	    1.0000 	   22.0000 	   49.8200
    4.8753 	   26.9230 	    1.0000 	   22.0000 	   50.2441
    4.7074 	   27.0225 	    1.0000 	   22.0000 	   50.6421
    4.6769 	   27.1208 	    1.0000 	   22.0000 	   51.0351
    4.7379 	   27.2213 	    1.0000 	   22.0000 	   51.4371
    4.7532 	   27.3173 	    1.0000 	   22.0000 	   51.8212
    4.9363 	   27.4185 	    1.0000 	   22.0000 	   52.2262
    4.7227 	   27.5255 	    1.0000 	   22.0000 	   52.6542
    5.0278 	   27.6235 	    1.0000 	   22.0000 	   53.0462
    4.7990 	   27.7215 	    1.0000 	   22.0000 	   53.4383
    4.9210 	   27.8193 	    1.0000 	   22.0000 	   53.8293
    4.9058 	   27.9190 	    1.0000 	   22.0000 	   54.2283
    4.7684 	   28.0205 	    1.0000 	   22.0000 	   54.6343
    4.8753 	   28.1203 	    1.0000 	   22.0000 	   55.0333
    4.9363 	   28.2265 	    1.0000 	   22.0000 	   55.4584
    4.9821 	   28.3303 	    1.0000 	   22.0000 	   55.8734
    4.9973 	   28.4313 	    1.0000 	   22.0000 	   56.2774
    4.8753 	   28.5313 	    1.0000 	   22.0000 	   56.6774
    4.9210 	   28.6398 	    1.0000 	   22.0000 	   57.1115
    5.0889 	   28.7418 	    1.0000 	   22.0000 	   57.5185
    5.0584 	   28.8405 	    1.0000 	   22.0000 	   57.9135
    5.1652 	   28.9483 	    1.0000 	   22.0000 	   58.3445
    4.8753 	   29.0590 	    1.0000 	   22.0000 	   58.7876
    5.2415 	   29.1698 	    1.0000 	   22.0000 	   59.2306
    5.2262 	   29.2790 	    1.0000 	   22.0000 	   59.6676
    5.2720 	   29.3878 	    1.0000 	   23.0000 	    0.1026
    5.1499 	   29.4960 	    1.0000 	   23.0000 	    0.5357
    5.2567 	   29.5960 	    1.0000 	   23.0000 	    0.9357
    5.4704 	   29.6958 	    1.0000 	   23.0000 	    1.3347
    5.3330 	   29.8023 	    1.0000 	   23.0000 	    1.7607
    5.3330 	   29.9068 	    1.0000 	   23.0000 	    2.1788
    5.3025 	   30.0083 	    1.0000 	   23.0000 	    2.5848
    5.3941 	   30.1115 	    1.0000 	   23.0000 	    2.9978
    5.4551 	   30.2178 	    1.0000 	   23.0000 	    3.4228
    5.1041 	   30.3193 	    1.0000 	   23.0000 	    3.8288
    5.4704 	   30.4213 	    1.0000 	   23.0000 	    4.2369
    5.3483 	   30.5295 	    1.0000 	   23.0000 	    4.6699
    5.4246 	   30.6368 	    1.0000 	   23.0000 	    5.0989
    5.3330 	   30.7460 	    1.0000 	   23.0000 	    5.5359
    5.3025 	   30.8585 	    1.0000 	   23.0000 	    5.9860
    5.4093 	   30.9715 	    1.0000 	   23.0000 	    6.4380
    5.3635 	   31.0713 	    1.0000 	   23.0000 	    6.8370
    5.4246 	   31.1748 	    1.0000 	   23.0000 	    7.2510
    5.4093 	   31.2748 	    1.0000 	   23.0000 	    7.6511
    5.4704 	   31.3768 	    1.0000 	   23.0000 	    8.0591
    5.3025 	   31.4778 	    1.0000 	   23.0000 	    8.4631
    5.2262 	   31.5810 	    1.0000 	   23.0000 	    8.8761
    5.3941 	   31.6820 	    1.0000 	   23.0000 	    9.2802
    5.2873 	   31.7853 	    1.0000 	   23.0000 	    9.6932
    5.2720 	   31.8970 	    1.0000 	   23.0000 	   10.1402
    5.3635 	   32.0030 	    1.0000 	   23.0000 	   10.5642
    5.4093 	   32.1135 	    1.0000 	   23.0000 	   11.0063
    5.3788 	   32.2165 	    1.0000 	   23.0000 	   11.4183
    5.3635 	   32.3178 	    1.0000 	   23.0000 	   11.8233
    5.2262 	   32.4255 	    1.0000 	   23.0000 	   12.2543
    5.2415 	   32.5387 	    1.0000 	   23.0000 	   12.7074
    5.3483 	   32.6458 	    1.0000 	   23.0000 	   13.1354
    5.2720 	   32.7563 	    1.0000 	   23.0000 	   13.5774
    5.2415 	   32.8590 	    1.0000 	   23.0000 	   13.9884
    5.2567 	   32.9687 	    1.0000 	   23.0000 	   14.4275
    5.3941 	   33.0720 	    1.0000 	   23.0000 	   14.8395
    5.1499 	   33.1753 	    1.0000 	   23.0000 	   15.2525
    5.1957 	   33.2835 	    1.0000 	   23.0000 	   15.6855
    5.3941 	   33.3923 	    1.0000 	   23.0000 	   16.1206
    5.3025 	   33.4980 	    1.0000 	   23.0000 	   16.5436
    5.2110 	   33.6077 	    1.0000 	   23.0000 	   16.9826
    5.2415 	   33.7155 	    1.0000 	   23.0000 	   17.4136
    5.2415 	   33.8260 	    1.0000 	   23.0000 	   17.8556
    5.0431 	   33.9338 	    1.0000 	   23.0000 	   18.2867
    5.2873 	   34.0385 	    1.0000 	   23.0000 	   18.7057
    5.2567 	   34.1470 	    1.0000 	   23.0000 	   19.1397
    5.1041 	   34.2525 	    1.0000 	   23.0000 	   19.5617
    5.1957 	   34.3608 	    1.0000 	   23.0000 	   19.9948
    5.0584 	   34.4687 	    1.0000 	   23.0000 	   20.4268
    5.2873 	   34.5833 	    1.0000 	   23.0000 	   20.8848
    5.1804 	   34.6958 	    1.0000 	   23.0000 	   21.3348
    5.1194 	   34.8040 	    1.0000 	   23.0000 	   21.7679
    5.2873 	   34.9075 	    1.0000 	   23.0000 	   22.1819
    5.1652 	   35.0140 	    1.0000 	   23.0000 	   22.6079
    5.0889 	   35.1205 	    1.0000 	   23.0000 	   23.0339
    5.2110 	   35.2315 	    1.0000 	   23.0000 	   23.4780
    5.1347 	   35.3428 	    1.0000 	   23.0000 	   23.9230
    4.9516 	   35.4585 	    1.0000 	   23.0000 	   24.3860
    5.3635 	   35.5695 	    1.0000 	   23.0000 	   24.8300
    5.1499 	   35.6770 	    1.0000 	   23.0000 	   25.2601
    5.1194 	   35.7823 	    1.0000 	   23.0000 	   25.6811
    5.0736 	   35.8945 	    1.0000 	   23.0000 	   26.1301
    5.0889 	   36.0010 	    1.0000 	   23.0000 	   26.5551
    5.3025 	   36.1115 	    1.0000 	   23.0000 	   26.9982
    5.2262 	   36.2195 	    1.0000 	   23.0000 	   27.4302
    5.0278 	   36.3290 	    1.0000 	   23.0000 	   27.8682
    4.9363 	   36.4363 	    1.0000 	   23.0000 	   28.2972
    5.0126 	   36.5413 	    1.0000 	   23.0000 	   28.7173
    5.2262 	   36.6555 	    1.0000 	   23.0000 	   29.1743
    5.0278 	   36.7635 	    1.0000 	   23.0000 	   29.6063
    5.1041 	   36.8715 	    1.0000 	   23.0000 	   30.0383
    5.0431 	   36.9770 	    1.0000 	   23.0000 	   30.4604
    5.1804 	   37.0845 	    1.0000 	   23.0000 	   30.8904
    5.3025 	   37.1910 	    1.0000 	   23.0000 	   31.3164
    5.3178 	   37.2965 	    1.0000 	   23.0000 	   31.7384
    5.1347 	   37.4033 	    1.0000 	   23.0000 	   32.1645
    5.1347 	   37.5090 	    1.0000 	   23.0000 	   32.5875
    5.1041 	   37.6205 	    1.0000 	   23.0000 	   33.0335
    5.2262 	   37.7360 	    1.0000 	   23.0000 	   33.4955
    5.1499 	   37.8440 	    1.0000 	   23.0000 	   33.9276
    5.2262 	   37.9570 	    1.0000 	   23.0000 	   34.3796
    5.0431 	   38.0753 	    1.0000 	   23.0000 	   34.8526
    5.1804 	   38.1858 	    1.0000 	   23.0000 	   35.2946
    5.1347 	   38.3025 	    1.0000 	   23.0000 	   35.7617
    4.7379 	   38.4193 	    1.0000 	   23.0000 	   36.2287
    5.2110 	   38.5285 	    1.0000 	   23.0000 	   36.6657
    5.1194 	   38.6363 	    1.0000 	   23.0000 	   37.0968
    5.1347 	   38.7440 	    1.0000 	   23.0000 	   37.5278
    5.0584 	   38.8545 	    1.0000 	   23.0000 	   37.9698
    4.9821 	   38.9687 	    1.0000 	   23.0000 	   38.4268
    5.1499 	   39.0793 	    1.0000 	   23.0000 	   38.8689
    5.0889 	   39.1895 	    1.0000 	   23.0000 	   39.3099
    5.2567 	   39.3030 	    1.0000 	   23.0000 	   39.7639
    4.9363 	   39.4213 	    1.0000 	   23.0000 	   40.2369
    5.1194 	   39.5320 	    1.0000 	   23.0000 	   40.6800
    5.1652 	   39.6483 	    1.0000 	   23.0000 	   41.1450
    4.9668 	   39.7600 	    1.0000 	   23.0000 	   41.5920
    5.1347 	   39.8715 	    1.0000 	   23.0000 	   42.0380
    5.1957 	   39.9838 	    1.0000 	   23.0000 	   42.4871
    5.1652 	   40.0958 	    1.0000 	   23.0000 	   42.9351
    5.0889 	   40.2090 	    1.0000 	   23.0000 	   43.3881
    5.1804 	   40.3200 	    1.0000 	   23.0000 	   43.8321
    5.0126 	   40.4310 	    1.0000 	   23.0000 	   44.2762
    5.2415 	   40.5510 	    1.0000 	   23.0000 	   44.7562
    5.1957 	   40.6638 	    1.0000 	   23.0000 	   45.2072
    5.0584 	   40.7773 	    1.0000 	   23.0000 	   45.6612
    5.0278 	   40.8933 	    1.0000 	   23.0000 	   46.1253
    5.0278 	   41.0108 	    1.0000 	   23.0000 	   46.5953
    5.1652 	   41.1245 	    1.0000 	   23.0000 	   47.0503
    5.0736 	   41.2395 	    1.0000 	   23.0000 	   47.5103
    5.0889 	   41.3533 	    1.0000 	   23.0000 	   47.9654
    5.1499 	   41.4695 	    1.0000 	   23.0000 	   48.4304
    5.0584 	   41.5915 	    1.0000 	   23.0000 	   48.9184
    5.1041 	   41.7115 	    1.0000 	   23.0000 	   49.3985
    5.0889 	   41.8248 	    1.0000 	   23.0000 	   49.8505
    5.1347 	   41.9403 	    1.0000 	   23.0000 	   50.3125
    5.0126 	   42.0538 	    1.0000 	   23.0000 	   50.7665
    4.9363 	   42.1650 	    1.0000 	   23.0000 	   51.2116
    5.0278 	   42.2773 	    1.0000 	   23.0000 	   51.6606
    4.7684 	   42.3940 	    1.0000 	   23.0000 	   52.1276
    5.1804 	   42.5065 	    1.0000 	   23.0000 	   52.5776
    5.0278 	   42.6193 	    1.0000 	   23.0000 	   53.0287
    4.9821 	   42.7338 	    1.0000 	   23.0000 	   53.4867
    5.0889 	   42.8450 	    1.0000 	   23.0000 	   53.9317
    5.1041 	   42.9670 	    1.0000 	   23.0000 	   54.4197
    5.1957 	   43.0798 	    1.0000 	   23.0000 	   54.8708
    4.8600 	   43.1910 	    1.0000 	   23.0000 	   55.3158
    5.1194 	   43.3090 	    1.0000 	   23.0000 	   55.7878
    4.9210 	   43.4240 	    1.0000 	   23.0000 	   56.2478
    5.1499 	   43.5405 	    1.0000 	   23.0000 	   56.7139
    5.2415 	   43.6563 	    1.0000 	   23.0000 	   57.1769
    5.0584 	   43.7730 	    1.0000 	   23.0000 	   57.6439
    5.0736 	   43.8855 	    1.0000 	   23.0000 	   58.0940
    5.0278 	   44.0000 	    1.0000 	   23.0000 	   58.5520
    5.2110 	   44.1155 	    1.0000 	   23.0000 	   59.0140
    5.0889 	   44.2288 	    1.0000 	   23.0000 	   59.4670
    5.1041 	   44.3480 	    1.0000 	   23.0000 	   59.9441
    4.7990 	   44.4648 	    1.0000 	   24.0000 	    0.4111
    5.0431 	   44.5843 	    1.0000 	   24.0000 	    0.8891
    5.2415 	   44.7000 	    1.0000 	   24.0000 	    1.3521
    5.1804 	   44.8158 	    1.0000 	   24.0000 	    1.8152
    5.0126 	   44.9295 	    1.0000 	   24.0000 	    2.2702
    4.9821 	   45.0448 	    1.0000 	   24.0000 	    2.7312
    5.0736 	   45.1593 	    1.0000 	   24.0000 	    3.1892
    4.9668 	   45.2755 	    1.0000 	   24.0000 	    3.6543
    5.1804 	   45.3955 	    1.0000 	   24.0000 	    4.1343
    4.9973 	   45.5108 	    1.0000 	   24.0000 	    4.5953
    5.0431 	   45.6305 	    1.0000 	   24.0000 	    5.0744
    5.0736 	   45.7480 	    1.0000 	   24.0000 	    5.5444
    5.0126 	   45.8675 	    1.0000 	   24.0000 	    6.0224
    5.0431 	   45.9893 	    1.0000 	   24.0000 	    6.5094
    5.0736 	   46.1068 	    1.0000 	   24.0000 	    6.9795
    5.0126 	   46.2295 	    1.0000 	   24.0000 	    7.4695
    4.9516 	   46.3485 	    1.0000 	   24.0000 	    7.9455
    4.9821 	   46.4700 	    1.0000 	   24.0000 	    8.4315
    5.0584 	   46.5865 	    1.0000 	   24.0000 	    8.8976
    5.1652 	   46.7033 	    1.0000 	   24.0000 	    9.3646
    5.1804 	   46.8215 	    1.0000 	   24.0000 	    9.8376
    4.8142 	   46.9455 	    1.0000 	   24.0000 	   10.3327
    5.2262 	   47.0635 	    1.0000 	   24.0000 	   10.8057
    5.0278 	   47.1820 	    1.0000 	   24.0000 	   11.2797
    5.0584 	   47.2988 	    1.0000 	   24.0000 	   11.7467
    4.9210 	   47.4228 	    1.0000 	   24.0000 	   12.2428
    5.0736 	   47.5408 	    1.0000 	   24.0000 	   12.7148
    5.0126 	   47.6585 	    1.0000 	   24.0000 	   13.1858
    4.9668 	   47.7775 	    1.0000 	   24.0000 	   13.6618
    4.9363 	   47.8950 	    1.0000 	   24.0000 	   14.1319
    5.0278 	   48.0158 	    1.0000 	   24.0000 	   14.6149
    5.0584 	   48.1413 	    1.0000 	   24.0000 	   15.1169
    5.0889 	   48.2655 	    1.0000 	   24.0000 	   15.6140
    5.2262 	   48.3833 	    1.0000 	   24.0000 	   16.0850
    5.0278 	   48.5028 	    1.0000 	   24.0000 	   16.5630
    4.9821 	   48.6260 	    1.0000 	   24.0000 	   17.0560
    5.1499 	   48.7513 	    1.0000 	   24.0000 	   17.5571
    5.1499 	   48.8713 	    1.0000 	   24.0000 	   18.0371
    4.9210 	   48.9925 	    1.0000 	   24.0000 	   18.5221
    5.0431 	   49.1168 	    1.0000 	   24.0000 	   19.0191
    5.1499 	   49.2443 	    1.0000 	   24.0000 	   19.5292
    4.9973 	   49.3715 	    1.0000 	   24.0000 	   20.0382
    5.1041 	   49.4893 	    1.0000 	   24.0000 	   20.5092
    4.9516 	   49.6070 	    1.0000 	   24.0000 	   20.9803
    4.9821 	   49.7263 	    1.0000 	   24.0000 	   21.4573
    4.9363 	   49.8475 	    1.0000 	   24.0000 	   21.9423
    5.1652 	   49.9715 	    1.0000 	   24.0000 	   22.4383
    5.1194 	   50.0908 	    1.0000 	   24.0000 	   22.9154
    4.9516 	   50.2090 	    1.0000 	   24.0000 	   23.3884
    5.1499 	   50.3323 	    1.0000 	   24.0000 	   23.8814
    5.0431 	   50.4550 	    1.0000 	   24.0000 	   24.3725
    4.8753 	   50.5755 	    1.0000 	   24.0000 	   24.8525
    4.9821 	   50.6970 	    1.0000 	   24.0000 	   25.3395
    4.9821 	   50.8175 	    1.0000 	   24.0000 	   25.8215
    5.0278 	   50.9388 	    1.0000 	   24.0000 	   26.3066
    4.9210 	   51.0633 	    1.0000 	   24.0000 	   26.8046
    4.8600 	   51.1848 	    1.0000 	   24.0000 	   27.2906
    5.0889 	   51.3060 	    1.0000 	   24.0000 	   27.7757
    5.0278 	   51.4255 	    1.0000 	   24.0000 	   28.2537
    4.9668 	   51.5453 	    1.0000 	   24.0000 	   28.7327
    4.9668 	   51.6673 	    1.0000 	   24.0000 	   29.2207
    4.8600 	   51.7898 	    1.0000 	   24.0000 	   29.7108
    5.0736 	   51.9138 	    1.0000 	   24.0000 	   30.2068
    4.9363 	   52.0373 	    1.0000 	   24.0000 	   30.7008
    4.9668 	   52.1615 	    1.0000 	   24.0000 	   31.1978
    4.9973 	   52.2833 	    1.0000 	   24.0000 	   31.6849
    4.9821 	   52.4063 	    1.0000 	   24.0000 	   32.1769
    4.9058 	   52.5273 	    1.0000 	   24.0000 	   32.6609
    5.0126 	   52.6518 	    1.0000 	   24.0000 	   33.1590
    4.8905 	   52.7798 	    1.0000 	   24.0000 	   33.6710
    4.9210 	   52.9018 	    1.0000 	   24.0000 	   34.1590
    4.7684 	   53.0225 	    1.0000 	   24.0000 	   34.6420
    4.7990 	   53.1463 	    1.0000 	   24.0000 	   35.1371
    4.7379 	   53.2695 	    1.0000 	   24.0000 	   35.6301
    4.6921 	   53.3955 	    1.0000 	   24.0000 	   36.1341
    4.5396 	   53.5195 	    1.0000 	   24.0000 	   36.6302
    4.6159 	   53.6435 	    1.0000 	   24.0000 	   37.1262
    4.4938 	   53.7730 	    1.0000 	   24.0000 	   37.6442
    4.5701 	   53.8955 	    1.0000 	   24.0000 	   38.1342
    4.3717 	   54.0238 	    1.0000 	   24.0000 	   38.6473
    4.3259 	   54.1500 	    1.0000 	   24.0000 	   39.1523
    4.3259 	   54.2725 	    1.0000 	   24.0000 	   39.6423
    4.2039 	   54.3963 	    1.0000 	   24.0000 	   40.1374
    3.9292 	   54.5195 	    1.0000 	   24.0000 	   40.6304
    4.1733 	   54.6428 	    1.0000 	   24.0000 	   41.1234
    4.0055 	   54.7658 	    1.0000 	   24.0000 	   41.6154
    4.2039 	   54.8908 	    1.0000 	   24.0000 	   42.1145
    4.0208 	   55.0163 	    1.0000 	   24.0000 	   42.6165
    4.0818 	   55.1393 	    1.0000 	   24.0000 	   43.1085
    4.0818 	   55.2625 	    1.0000 	   24.0000 	   43.6016
    4.0055 	   55.3935 	    1.0000 	   24.0000 	   44.1256
    3.8529 	   55.5205 	    1.0000 	   24.0000 	   44.6336
    3.7613 	   55.6453 	    1.0000 	   24.0000 	   45.1326
    3.7156 	   55.7700 	    1.0000 	   24.0000 	   45.6317
    3.7613 	   55.8990 	    1.0000 	   24.0000 	   46.1477
    3.8682 	   56.0238 	    1.0000 	   24.0000 	   46.6467
    3.6851 	   56.1515 	    1.0000 	   24.0000 	   47.1578
    3.6393 	   56.2798 	    1.0000 	   24.0000 	   47.6708
    3.5935 	   56.4048 	    1.0000 	   24.0000 	   48.1708
    3.8682 	   56.5300 	    1.0000 	   24.0000 	   48.6718
    3.5172 	   56.6548 	    1.0000 	   24.0000 	   49.1709
    3.5477 	   56.7813 	    1.0000 	   24.0000 	   49.6769
    3.5019 	   56.9143 	    1.0000 	   24.0000 	   50.2089
    3.5782 	   57.0388 	    1.0000 	   24.0000 	   50.7070
    3.4409 	   57.1645 	    1.0000 	   24.0000 	   51.2100
    3.4257 	   57.2898 	    1.0000 	   24.0000 	   51.7110
    3.5019 	   57.4155 	    1.0000 	   24.0000 	   52.2140
    3.4562 	   57.5408 	    1.0000 	   24.0000 	   52.7151
    3.4867 	   57.6665 	    1.0000 	   24.0000 	   53.2181
    3.4257 	   57.7945 	    1.0000 	   24.0000 	   53.7301
    3.3799 	   57.9250 	    1.0000 	   24.0000 	   54.2522
    3.2578 	   58.0525 	    1.0000 	   24.0000 	   54.7622
    3.4257 	   58.1825 	    1.0000 	   24.0000 	   55.2822
    3.2273 	   58.3108 	    1.0000 	   24.0000 	   55.7952
    3.1205 	   58.4368 	    1.0000 	   24.0000 	   56.2993
    3.1052 	   58.5630 	    1.0000 	   24.0000 	   56.8043
    3.3494 	   58.6903 	    1.0000 	   24.0000 	   57.3133
    3.0289 	   58.8190 	    1.0000 	   24.0000 	   57.8284
    3.0442 	   58.9508 	    1.0000 	   24.0000 	   58.3554
    3.0442 	   59.0823 	    1.0000 	   24.0000 	   58.8814
    3.1815 	   59.2175 	    1.0000 	   24.0000 	   59.4225
    3.0747 	   59.3465 	    1.0000 	   24.0000 	   59.9375
    3.0442 	   59.4790 	    1.0000 	   25.0000 	    0.4675
    2.6627 	   59.6125 	    1.0000 	   25.0000 	    1.0015
    2.9984 	   59.7425 	    1.0000 	   25.0000 	    1.5216
    3.0137 	   59.8750 	    1.0000 	   25.0000 	    2.0516
    2.8305 	   60.0045 	    1.0000 	   25.0000 	    2.5696
    2.7695 	   60.1325 	    1.0000 	   25.0000 	    3.0817
    3.1205 	   60.2650 	    1.0000 	   25.0000 	    3.6117
    2.8611 	   60.3963 	    1.0000 	   25.0000 	    4.1367
    2.8000 	   60.5270 	    1.0000 	   25.0000 	    4.6598
    2.7695 	   60.6575 	    1.0000 	   25.0000 	    5.1818
    2.9374 	   60.7865 	    1.0000 	   25.0000 	    5.6978
    2.7390 	   60.9190 	    1.0000 	   25.0000 	    6.2278
    2.8153 	   61.0480 	    1.0000 	   25.0000 	    6.7439
    2.7695 	   61.1785 	    1.0000 	   25.0000 	    7.2659
    2.7543 	   61.3080 	    1.0000 	   25.0000 	    7.7839
    2.7543 	   61.4433 	    1.0000 	   25.0000 	    8.3250
    2.6474 	   61.5750 	    1.0000 	   25.0000 	    8.8520
    2.7085 	   61.7073 	    1.0000 	   25.0000 	    9.3810
    2.7543 	   61.8380 	    1.0000 	   25.0000 	    9.9041
    2.6474 	   61.9678 	    1.0000 	   25.0000 	   10.4231
    2.5406 	   62.1010 	    1.0000 	   25.0000 	   10.9561
    2.6169 	   62.2290 	    1.0000 	   25.0000 	   11.4681
    2.5864 	   62.3573 	    1.0000 	   25.0000 	   11.9812
    2.4796 	   62.4943 	    1.0000 	   25.0000 	   12.5292
    2.3728 	   62.6220 	    1.0000 	   25.0000 	   13.0402
    2.5254 	   62.7495 	    1.0000 	   25.0000 	   13.5503
    2.4033 	   62.8795 	    1.0000 	   25.0000 	   14.0703
    2.4948 	   63.0130 	    1.0000 	   25.0000 	   14.6043
    2.2660 	   63.1435 	    1.0000 	   25.0000 	   15.1264
    2.4491 	   63.2735 	    1.0000 	   25.0000 	   15.6464
    2.2507 	   63.4113 	    1.0000 	   25.0000 	   16.1974
    2.4033 	   63.5410 	    1.0000 	   25.0000 	   16.7164
    2.4491 	   63.6705 	    1.0000 	   25.0000 	   17.2335
    2.2507 	   63.8003 	    1.0000 	   25.0000 	   17.7525
    2.0981 	   63.9288 	    1.0000 	   25.0000 	   18.2665
    2.3270 	   64.0590 	    1.0000 	   25.0000 	   18.7876
    2.4033 	   64.1905 	    1.0000 	   25.0000 	   19.3136
    2.3575 	   64.3203 	    1.0000 	   25.0000 	   19.8326
    2.3117 	   64.4505 	    1.0000 	   25.0000 	   20.3537
    2.1286 	   64.5790 	    1.0000 	   25.0000 	   20.8677
    2.1286 	   64.7090 	    1.0000 	   25.0000 	   21.3877
    2.1744 	   64.8403 	    1.0000 	   25.0000 	   21.9127
    2.1286 	   64.9793 	    1.0000 	   25.0000 	   22.4688
    2.1439 	   65.1113 	    1.0000 	   25.0000 	   22.9968
    2.0829 	   65.2420 	    1.0000 	   25.0000 	   23.5198
    1.9913 	   65.3783 	    1.0000 	   25.0000 	   24.0649
    2.0676 	   65.5100 	    1.0000 	   25.0000 	   24.5919
    2.1592 	   65.6435 	    1.0000 	   25.0000 	   25.1259
    2.0829 	   65.7740 	    1.0000 	   25.0000 	   25.6480
    2.1286 	   65.9048 	    1.0000 	   25.0000 	   26.1710
    2.0981 	   66.0390 	    1.0000 	   25.0000 	   26.7080
    1.6403 	   66.1723 	    1.0000 	   25.0000 	   27.2411
    1.9608 	   66.3058 	    1.0000 	   25.0000 	   27.7751
    1.9303 	   66.4370 	    1.0000 	   25.0000 	   28.3001
    1.9608 	   66.5690 	    1.0000 	   25.0000 	   28.8281
    1.8692 	   66.7018 	    1.0000 	   25.0000 	   29.3592
    2.0829 	   66.8430 	    1.0000 	   25.0000 	   29.9242
    2.0981 	   66.9785 	    1.0000 	   25.0000 	   30.4662
    1.9150 	   67.1118 	    1.0000 	   25.0000 	   30.9993
    1.6861 	   67.2533 	    1.0000 	   25.0000 	   31.5653
    1.7624 	   67.3870 	    1.0000 	   25.0000 	   32.1003
    1.8082 	   67.5230 	    1.0000 	   25.0000 	   32.6444
    1.8235 	   67.6570 	    1.0000 	   25.0000 	   33.1804
    1.7624 	   67.7918 	    1.0000 	   25.0000 	   33.7194
    1.6556 	   67.9273 	    1.0000 	   25.0000 	   34.2615
    1.7929 	   68.0620 	    1.0000 	   25.0000 	   34.7995
    1.8082 	   68.1965 	    1.0000 	   25.0000 	   35.3375
    1.7014 	   68.3330 	    1.0000 	   25.0000 	   35.8835
    1.6556 	   68.4743 	    1.0000 	   25.0000 	   36.4486
    1.6556 	   68.6130 	    1.0000 	   25.0000 	   37.0036
    1.6403 	   68.7488 	    1.0000 	   25.0000 	   37.5466
    1.6403 	   68.8920 	    1.0000 	   25.0000 	   38.1197
    1.6403 	   69.0320 	    1.0000 	   25.0000 	   38.6797
    1.5183 	   69.1680 	    1.0000 	   25.0000 	   39.2237
    1.5640 	   69.3030 	    1.0000 	   25.0000 	   39.7638
    1.6556 	   69.4393 	    1.0000 	   25.0000 	   40.3088
    1.6098 	   69.5790 	    1.0000 	   25.0000 	   40.8678
    1.5183 	   69.7153 	    1.0000 	   25.0000 	   41.4129
    1.7166 	   69.8515 	    1.0000 	   25.0000 	   41.9579
    1.6098 	   69.9880 	    1.0000 	   25.0000 	   42.5039
    1.5793 	   70.1263 	    1.0000 	   25.0000 	   43.0570
    1.5030 	   70.2633 	    1.0000 	   25.0000 	   43.6050
    1.4725 	   70.4010 	    1.0000 	   25.0000 	   44.1560
    1.4115 	   70.5378 	    1.0000 	   25.0000 	   44.7030
    1.3199 	   70.6738 	    1.0000 	   25.0000 	   45.2471
    1.3962 	   70.8110 	    1.0000 	   25.0000 	   45.7961
    1.3046 	   70.9495 	    1.0000 	   25.0000 	   46.3501
    1.1826 	   71.0895 	    1.0000 	   25.0000 	   46.9102
    1.5030 	   71.2278 	    1.0000 	   25.0000 	   47.4632
    1.2131 	   71.3715 	    1.0000 	   25.0000 	   48.0382
    1.2741 	   71.5128 	    1.0000 	   25.0000 	   48.6033
    1.1978 	   71.6490 	    1.0000 	   25.0000 	   49.1483
    1.0147 	   71.7885 	    1.0000 	   25.0000 	   49.7063
    1.2436 	   71.9290 	    1.0000 	   25.0000 	   50.2684
    1.1215 	   72.0720 	    1.0000 	   25.0000 	   50.8404
    1.1673 	   72.2115 	    1.0000 	   25.0000 	   51.3984
    1.1368 	   72.3545 	    1.0000 	   25.0000 	   51.9705
    1.1826 	   72.5015 	    1.0000 	   25.0000 	   52.5575
    1.2894 	   72.6408 	    1.0000 	   25.0000 	   53.1145
    1.0300 	   72.7803 	    1.0000 	   25.0000 	   53.6726
    1.1368 	   72.9218 	    1.0000 	   25.0000 	   54.2386
    1.1215 	   73.0628 	    1.0000 	   25.0000 	   54.8026
    1.0758 	   73.2020 	    1.0000 	   25.0000 	   55.3597
    1.2894 	   73.3400 	    1.0000 	   25.0000 	   55.9117
    1.1673 	   73.4898 	    1.0000 	   25.0000 	   56.5107
    1.0452 	   73.6350 	    1.0000 	   25.0000 	   57.0918
    0.9079 	   73.7768 	    1.0000 	   25.0000 	   57.6588
    0.8316 	   73.9195 	    1.0000 	   25.0000 	   58.2298
    0.9079 	   74.0630 	    1.0000 	   25.0000 	   58.8039
    0.6943 	   74.2080 	    1.0000 	   25.0000 	   59.3839
    0.8927 	   74.3508 	    1.0000 	   25.0000 	   59.9549
    0.7553 	   74.4903 	    1.0000 	   26.0000 	    0.5130
    0.7858 	   74.6308 	    1.0000 	   26.0000 	    1.0750
    0.7401 	   74.7778 	    1.0000 	   26.0000 	    1.6630
    0.8011 	   74.9193 	    1.0000 	   26.0000 	    2.2291
    0.7095 	   75.0660 	    1.0000 	   26.0000 	    2.8161
    0.7858 	   75.2123 	    1.0000 	   26.0000 	    3.4011
    0.7095 	   75.3558 	    1.0000 	   26.0000 	    3.9752
    0.7858 	   75.4985 	    1.0000 	   26.0000 	    4.5462
    0.6485 	   75.6423 	    1.0000 	   26.0000 	    5.1212
    0.5417 	   75.7853 	    1.0000 	   26.0000 	    5.6932
    0.5417 	   75.9305 	    1.0000 	   26.0000 	    6.2743
    0.4501 	   76.0760 	    1.0000 	   26.0000 	    6.8563
    0.5722 	   76.2183 	    1.0000 	   26.0000 	    7.4253
    0.6485 	   76.3623 	    1.0000 	   26.0000 	    8.0014
    0.4349 	   76.5055 	    1.0000 	   26.0000 	    8.5744
    0.4807 	   76.6473 	    1.0000 	   26.0000 	    9.1414
    0.3891 	   76.7905 	    1.0000 	   26.0000 	    9.7135
    0.3738 	   76.9335 	    1.0000 	   26.0000 	   10.2855
    0.3891 	   77.0815 	    1.0000 	   26.0000 	   10.8775
    0.4196 	   77.2305 	    1.0000 	   26.0000 	   11.4736
    0.3281 	   77.3730 	    1.0000 	   26.0000 	   12.0436
    0.3128 	   77.5240 	    1.0000 	   26.0000 	   12.6476
    0.3586 	   77.6725 	    1.0000 	   26.0000 	   13.2417
    0.2976 	   77.8338 	    1.0000 	   26.0000 	   13.8867
    0.3433 	   77.9748 	    1.0000 	   26.0000 	   14.4508
    0.3586 	   78.1230 	    1.0000 	   26.0000 	   15.0438
    0.2365 	   78.2635 	    1.0000 	   26.0000 	   15.6058
    0.2365 	   78.4033 	    1.0000 	   26.0000 	   16.1648
    0.2060 	   78.5413 	    1.0000 	   26.0000 	   16.7169
   -0.0534 	   78.6798 	    1.0000 	   26.0000 	   17.2709
    0.2976 	   78.8195 	    1.0000 	   26.0000 	   17.8299
    0.2060 	   78.9590 	    1.0000 	   26.0000 	   18.3880
   -0.0076 	   79.0995 	    1.0000 	   26.0000 	   18.9500
    0.1450 	   79.2398 	    1.0000 	   26.0000 	   19.5110
    0.2365 	   79.3790 	    1.0000 	   26.0000 	   20.0681
    0.0076 	   79.5193 	    1.0000 	   26.0000 	   20.6291
    0.2365 	   79.6590 	    1.0000 	   26.0000 	   21.1881
    0.2670 	   79.8030 	    1.0000 	   26.0000 	   21.7642
    0.1297 	   79.9430 	    1.0000 	   26.0000 	   22.3242
    0.3128 	   80.0833 	    1.0000 	   26.0000 	   22.8852
    0.1450 	   80.2223 	    1.0000 	   26.0000 	   23.4413
    0.0992 	   80.3618 	    1.0000 	   26.0000 	   23.9993
   -0.2518 	   80.5013 	    1.0000 	   26.0000 	   24.5573
    0.1907 	   80.6418 	    1.0000 	   26.0000 	   25.1194
    0.1297 	   80.7828 	    1.0000 	   26.0000 	   25.6834
    0.1907 	   80.9240 	    1.0000 	   26.0000 	   26.2484
   -0.1297 	   81.0650 	    1.0000 	   26.0000 	   26.8125
    0.0076 	   81.2060 	    1.0000 	   26.0000 	   27.3755
    0.0992 	   81.3458 	    1.0000 	   26.0000 	   27.9345
    0.2213 	   81.4855 	    1.0000 	   26.0000 	   28.4936
    0.1907 	   81.6268 	    1.0000 	   26.0000 	   29.0586
    0.0839 	   81.7675 	    1.0000 	   26.0000 	   29.6216
    0.3128 	   81.9085 	    1.0000 	   26.0000 	   30.1856
    0.1602 	   82.0503 	    1.0000 	   26.0000 	   30.7527
    0.1450 	   82.1933 	    1.0000 	   26.0000 	   31.3247
    0.0687 	   82.3393 	    1.0000 	   26.0000 	   31.9087
    0.0839 	   82.4915 	    1.0000 	   26.0000 	   32.5178
    0.1144 	   82.6380 	    1.0000 	   26.0000 	   33.1038
    0.0534 	   82.7825 	    1.0000 	   26.0000 	   33.6819
    0.1297 	   82.9313 	    1.0000 	   26.0000 	   34.2769
    0.1144 	   83.0775 	    1.0000 	   26.0000 	   34.8619
    0.1602 	   83.2288 	    1.0000 	   26.0000 	   35.4670
    0.1907 	   83.3733 	    1.0000 	   26.0000 	   36.0450
    0.1450 	   83.5250 	    1.0000 	   26.0000 	   36.6520
    0.0076 	   83.6750 	    1.0000 	   26.0000 	   37.2521
    0.0381 	   83.8183 	    1.0000 	   26.0000 	   37.8251
   -0.0076 	   83.9635 	    1.0000 	   26.0000 	   38.4061
    0.1144 	   84.1115 	    1.0000 	   26.0000 	   38.9982
    0.2823 	   84.2623 	    1.0000 	   26.0000 	   39.6012
    0.1297 	   84.4088 	    1.0000 	   26.0000 	   40.1872
    0.1907 	   84.5563 	    1.0000 	   26.0000 	   40.7773
   -0.0076 	   84.7025 	    1.0000 	   26.0000 	   41.3623
    0.1297 	   84.8493 	    1.0000 	   26.0000 	   41.9493
    0.2518 	   84.9988 	    1.0000 	   26.0000 	   42.5474
    0.0839 	   85.1490 	    1.0000 	   26.0000 	   43.1484
    0.1602 	   85.2963 	    1.0000 	   26.0000 	   43.7374
   -0.1755 	   85.4450 	    1.0000 	   26.0000 	   44.3325
    0.0839 	   85.5993 	    1.0000 	   26.0000 	   44.9485
    0.0534 	   85.7468 	    1.0000 	   26.0000 	   45.5385
    0.0534 	   85.8968 	    1.0000 	   26.0000 	   46.1386
    0.0687 	   86.0475 	    1.0000 	   26.0000 	   46.7416
   -0.2213 	   86.1933 	    1.0000 	   26.0000 	   47.3246
    0.0381 	   86.3403 	    1.0000 	   26.0000 	   47.9127
    0.0992 	   86.4888 	    1.0000 	   26.0000 	   48.5067
    0.0687 	   86.6430 	    1.0000 	   26.0000 	   49.1237
    0.1755 	   86.7935 	    1.0000 	   26.0000 	   49.7258
    0.0992 	   86.9465 	    1.0000 	   26.0000 	   50.3378
    0.0229 	   87.0975 	    1.0000 	   26.0000 	   50.9418
    0.0076 	   87.2470 	    1.0000 	   26.0000 	   51.5399
    0.0839 	   87.3938 	    1.0000 	   26.0000 	   52.1269
    0.1602 	   87.5418 	    1.0000 	   26.0000 	   52.7189
    0.2823 	   87.6925 	    1.0000 	   26.0000 	   53.3220
    0.0534 	   87.8393 	    1.0000 	   26.0000 	   53.9090
   -0.0534 	   87.9915 	    1.0000 	   26.0000 	   54.5180
   -0.0076 	   88.1410 	    1.0000 	   26.0000 	   55.1161
    0.1144 	   88.2940 	    1.0000 	   26.0000 	   55.7281
    0.1297 	   88.4465 	    1.0000 	   26.0000 	   56.3381
    0.2213 	   88.5943 	    1.0000 	   26.0000 	   56.9292
   -0.0229 	   88.7423 	    1.0000 	   26.0000 	   57.5212
    0.1450 	   88.9038 	    1.0000 	   26.0000 	   58.1673
    0.0381 	   89.0568 	    1.0000 	   26.0000 	   58.7793
    0.0229 	   89.2145 	    1.0000 	   26.0000 	   59.4103
    0.0839 	   89.3713 	    1.0000 	   27.0000 	    0.0374
   -0.0687 	   89.5178 	    1.0000 	   27.0000 	    0.6234
    0.0534 	   89.6653 	    1.0000 	   27.0000 	    1.2134
   -0.0381 	   89.8138 	    1.0000 	   27.0000 	    1.8075
    0.1297 	   89.9615 	    1.0000 	   27.0000 	    2.3975
    0.1450 	   90.1140 	    1.0000 	   27.0000 	    3.0075
    0.0229 	   90.2685 	    1.0000 	   27.0000 	    3.6256
    0.0229 	   90.4238 	    1.0000 	   27.0000 	    4.2466
    0.1297 	   90.5748 	    1.0000 	   27.0000 	    4.8506
   -0.1144 	   90.7245 	    1.0000 	   27.0000 	    5.4497
   -0.0076 	   90.8760 	    1.0000 	   27.0000 	    6.0557
    0.1297 	   91.0288 	    1.0000 	   27.0000 	    6.6667
   -0.0076 	   91.1778 	    1.0000 	   27.0000 	    7.2628
    0.0687 	   91.3308 	    1.0000 	   27.0000 	    7.8748
    0.1602 	   91.4830 	    1.0000 	   27.0000 	    8.4838
    0.0687 	   91.6340 	    1.0000 	   27.0000 	    9.0879
    0.0381 	   91.7850 	    1.0000 	   27.0000 	    9.6919
    0.0076 	   91.9383 	    1.0000 	   27.0000 	   10.3049
    0.0687 	   92.0963 	    1.0000 	   27.0000 	   10.9370
    0.0076 	   92.2500 	    1.0000 	   27.0000 	   11.5520
   -0.0229 	   92.4015 	    1.0000 	   27.0000 	   12.1581
    0.0229 	   92.5533 	    1.0000 	   27.0000 	   12.7651
   -0.0381 	   92.7093 	    1.0000 	   27.0000 	   13.3891
    0.0839 	   92.8625 	    1.0000 	   27.0000 	   14.0022
   -0.0076 	   93.0148 	    1.0000 	   27.0000 	   14.6112
    0.1450 	   93.1655 	    1.0000 	   27.0000 	   15.2142
    0.0381 	   93.3170 	    1.0000 	   27.0000 	   15.8203
    0.1907 	   93.4715 	    1.0000 	   27.0000 	   16.4373
    0.0839 	   93.6253 	    1.0000 	   27.0000 	   17.0533
    0.0534 	   93.7768 	    1.0000 	   27.0000 	   17.6594
   -0.2518 	   93.9320 	    1.0000 	   27.0000 	   18.2804
    0.1297 	   94.0868 	    1.0000 	   27.0000 	   18.8994