File: instron/10_grey_2W15L_drag40_spd15.txt
Thayer School of Engineering        Instron 4442 Mechanical Testing System
6/28/2018 1:39:12 AM

  Force (N)	Extension (mm)	Not Used	Not Used	Not Used	     Hour	    Minute	    Second
    0.0687 	    0.2563 	    1.0000 	   39.0000 	   30.1703
    0.1907 	    0.3873 	    1.0000 	   39.0000 	   30.6943
    0.0687 	    0.5280 	    1.0000 	   39.0000 	   31.2573
    0.0229 	    0.6593 	    1.0000 	   39.0000 	   31.7824
    0.0534 	    0.8025 	    1.0000 	   39.0000 	   32.3554
    0.0839 	    0.8950 	    1.0000 	   39.0000 	   32.7254
    0.1755 	    0.9930 	    1.0000 	   39.0000 	   33.1174
    0.1297 	    1.0888 	    1.0000 	   39.0000 	   33.5005
    0.0076 	    1.1855 	    1.0000 	   39.0000 	   33.8875
    0.0076 	    1.2758 	    1.0000 	   39.0000 	   34.2485
    0.0687 	    1.3620 	    1.0000 	   39.0000 	   34.5935
    0.0381 	    1.4493 	    1.0000 	   39.0000 	   34.9425
    0.0687 	    1.5455 	    1.0000 	   39.0000 	   35.3276
    0.0992 	    1.6323 	    1.0000 	   39.0000 	   35.6736
    0.0534 	    1.7223 	    1.0000 	   39.0000 	   36.0336
   -0.0229 	    1.8090 	    1.0000 	   39.0000 	   36.3806
   -0.0229 	    1.8998 	    1.0000 	   39.0000 	   36.7436
    0.1297 	    1.9893 	    1.0000 	   39.0000 	   37.1017
   -0.1450 	    2.0785 	    1.0000 	   39.0000 	   37.4587
    0.0992 	    2.1665 	    1.0000 	   39.0000 	   37.8107
    0.2060 	    2.2535 	    1.0000 	   39.0000 	   38.1587
    0.0687 	    2.3150 	    1.0000 	   39.0000 	   38.4047
    0.2213 	    2.3773 	    1.0000 	   39.0000 	   38.6537
    0.2213 	    2.4393 	    1.0000 	   39.0000 	   38.9018
    0.1907 	    2.5015 	    1.0000 	   39.0000 	   39.1508
    0.1755 	    2.5628 	    1.0000 	   39.0000 	   39.3958
    0.1907 	    2.6230 	    1.0000 	   39.0000 	   39.6368
    0.1602 	    2.6843 	    1.0000 	   39.0000 	   39.8818
    0.0381 	    2.7455 	    1.0000 	   39.0000 	   40.1268
    0.1450 	    2.8078 	    1.0000 	   39.0000 	   40.3758
    0.2518 	    2.8690 	    1.0000 	   39.0000 	   40.6209
    0.0992 	    2.9313 	    1.0000 	   39.0000 	   40.8699
    0.0534 	    2.9955 	    1.0000 	   39.0000 	   41.1269
    0.0687 	    3.0565 	    1.0000 	   39.0000 	   41.3709
   -0.1602 	    3.1178 	    1.0000 	   39.0000 	   41.6159
    0.1907 	    3.1803 	    1.0000 	   39.0000 	   41.8659
    0.1755 	    3.2425 	    1.0000 	   39.0000 	   42.1149
    0.0687 	    3.3050 	    1.0000 	   39.0000 	   42.3650
    0.1450 	    3.3680 	    1.0000 	   39.0000 	   42.6170
    0.1144 	    3.4288 	    1.0000 	   39.0000 	   42.8600
    0.1755 	    3.4905 	    1.0000 	   39.0000 	   43.1070
    0.0229 	    3.5533 	    1.0000 	   39.0000 	   43.3580
    0.0839 	    3.6140 	    1.0000 	   39.0000 	   43.6010
   -0.0534 	    3.6763 	    1.0000 	   39.0000 	   43.8500
    0.0992 	    3.7378 	    1.0000 	   39.0000 	   44.0961
    0.3128 	    3.7983 	    1.0000 	   39.0000 	   44.3381
    0.0992 	    3.8600 	    1.0000 	   39.0000 	   44.5851
    0.1450 	    3.9218 	    1.0000 	   39.0000 	   44.8321
    0.1450 	    3.9848 	    1.0000 	   39.0000 	   45.0841
    0.0839 	    4.0468 	    1.0000 	   39.0000 	   45.3321
    0.2518 	    4.1085 	    1.0000 	   39.0000 	   45.5791
    0.3586 	    4.1705 	    1.0000 	   39.0000 	   45.8272
    0.0992 	    4.2330 	    1.0000 	   39.0000 	   46.0772
    0.0381 	    4.3130 	    1.0000 	   39.0000 	   46.3972
    0.2213 	    4.4043 	    1.0000 	   39.0000 	   46.7622
    0.0534 	    4.4998 	    1.0000 	   39.0000 	   47.1442
    0.0992 	    4.5950 	    1.0000 	   39.0000 	   47.5253
    0.0992 	    4.6898 	    1.0000 	   39.0000 	   47.9043
    0.0839 	    4.7865 	    1.0000 	   39.0000 	   48.2913
    0.1144 	    4.8820 	    1.0000 	   39.0000 	   48.6733
    0.2518 	    4.9808 	    1.0000 	   39.0000 	   49.0683
   -0.0076 	    5.0768 	    1.0000 	   39.0000 	   49.4524
    0.2060 	    5.1745 	    1.0000 	   39.0000 	   49.8434
    0.0687 	    5.2733 	    1.0000 	   39.0000 	   50.2384
    0.1907 	    5.3685 	    1.0000 	   39.0000 	   50.6194
    0.0381 	    5.4658 	    1.0000 	   39.0000 	   51.0085
    0.1602 	    5.5635 	    1.0000 	   39.0000 	   51.3995
    0.1144 	    5.6603 	    1.0000 	   39.0000 	   51.7865
    0.1297 	    5.7563 	    1.0000 	   39.0000 	   52.1705
    0.2823 	    5.8538 	    1.0000 	   39.0000 	   52.5605
    0.0839 	    5.9488 	    1.0000 	   39.0000 	   52.9406
    0.2518 	    6.0368 	    1.0000 	   39.0000 	   53.2916
    0.3891 	    6.1235 	    1.0000 	   39.0000 	   53.6386
    0.0381 	    6.2095 	    1.0000 	   39.0000 	   53.9826
    0.2823 	    6.3038 	    1.0000 	   39.0000 	   54.3596
    0.0839 	    6.3968 	    1.0000 	   39.0000 	   54.7317
    0.2060 	    6.4925 	    1.0000 	   39.0000 	   55.1147
    0.0076 	    6.5915 	    1.0000 	   39.0000 	   55.5107
    0.1755 	    6.6918 	    1.0000 	   39.0000 	   55.9117
    0.0076 	    6.7845 	    1.0000 	   39.0000 	   56.2828
    0.1144 	    6.8795 	    1.0000 	   39.0000 	   56.6628
    0.3128 	    6.9798 	    1.0000 	   39.0000 	   57.0638
    0.0992 	    7.0703 	    1.0000 	   39.0000 	   57.4258
    0.2670 	    7.1645 	    1.0000 	   39.0000 	   57.8028
    0.1144 	    7.2573 	    1.0000 	   39.0000 	   58.1739
    0.1602 	    7.3473 	    1.0000 	   39.0000 	   58.5339
    0.1297 	    7.4368 	    1.0000 	   39.0000 	   58.8919
    0.1450 	    7.5268 	    1.0000 	   39.0000 	   59.2519
    0.0839 	    7.6280 	    1.0000 	   39.0000 	   59.6570
   -0.0992 	    7.7218 	    1.0000 	   40.0000 	    0.0320
    0.2518 	    7.8198 	    1.0000 	   40.0000 	    0.4240
    0.2060 	    7.9215 	    1.0000 	   40.0000 	    0.8310
    0.1755 	    8.0208 	    1.0000 	   40.0000 	    1.2280
    0.1450 	    8.1148 	    1.0000 	   40.0000 	    1.6041
    0.1755 	    8.2060 	    1.0000 	   40.0000 	    1.9691
    0.1297 	    8.3013 	    1.0000 	   40.0000 	    2.3501
    0.1755 	    8.3975 	    1.0000 	   40.0000 	    2.7351
    0.2213 	    8.4980 	    1.0000 	   40.0000 	    3.1371
    0.1602 	    8.5903 	    1.0000 	   40.0000 	    3.5062
    0.0839 	    8.6825 	    1.0000 	   40.0000 	    3.8752
    0.0381 	    8.7853 	    1.0000 	   40.0000 	    4.2862
    0.0381 	    8.8913 	    1.0000 	   40.0000 	    4.7102
    0.1907 	    8.9875 	    1.0000 	   40.0000 	    5.0953
    0.2518 	    9.0815 	    1.0000 	   40.0000 	    5.4713
    0.1297 	    9.1748 	    1.0000 	   40.0000 	    5.8443
    0.0839 	    9.2743 	    1.0000 	   40.0000 	    6.2423
    0.1144 	    9.3798 	    1.0000 	   40.0000 	    6.6644
    0.0992 	    9.4870 	    1.0000 	   40.0000 	    7.0934
    0.2213 	    9.5853 	    1.0000 	   40.0000 	    7.4864
    0.3281 	    9.6813 	    1.0000 	   40.0000 	    7.8704
    0.1755 	    9.7880 	    1.0000 	   40.0000 	    8.2974
    0.1450 	    9.8950 	    1.0000 	   40.0000 	    8.7255
    0.1602 	    9.9985 	    1.0000 	   40.0000 	    9.1395
    0.1297 	   10.1005 	    1.0000 	   40.0000 	    9.5475
    0.1450 	   10.2075 	    1.0000 	   40.0000 	    9.9755
    0.1297 	   10.3080 	    1.0000 	   40.0000 	   10.3776
    0.3128 	   10.4060 	    1.0000 	   40.0000 	   10.7686
    0.2213 	   10.5073 	    1.0000 	   40.0000 	   11.1736
    0.1755 	   10.6135 	    1.0000 	   40.0000 	   11.5986
    0.2365 	   10.7138 	    1.0000 	   40.0000 	   11.9997
   -0.2060 	   10.8153 	    1.0000 	   40.0000 	   12.4057
    0.1602 	   10.9203 	    1.0000 	   40.0000 	   12.8257
    0.2518 	   11.0195 	    1.0000 	   40.0000 	   13.2227
    0.2976 	   11.1180 	    1.0000 	   40.0000 	   13.6167
    0.2518 	   11.2260 	    1.0000 	   40.0000 	   14.0488
   -0.0381 	   11.3235 	    1.0000 	   40.0000 	   14.4388
    0.2518 	   11.4215 	    1.0000 	   40.0000 	   14.8308
    0.0229 	   11.5268 	    1.0000 	   40.0000 	   15.2518
    0.2823 	   11.6320 	    1.0000 	   40.0000 	   15.6729
    0.2213 	   11.7348 	    1.0000 	   40.0000 	   16.0839
    0.2976 	   11.8465 	    1.0000 	   40.0000 	   16.5309
    0.3738 	   11.9565 	    1.0000 	   40.0000 	   16.9709
    0.2976 	   12.0613 	    1.0000 	   40.0000 	   17.3900
    0.1602 	   12.1638 	    1.0000 	   40.0000 	   17.8000
    0.6332 	   12.2723 	    1.0000 	   40.0000 	   18.2340
    0.4807 	   12.3748 	    1.0000 	   40.0000 	   18.6440
    0.3891 	   12.4750 	    1.0000 	   40.0000 	   19.0451
    0.6180 	   12.5840 	    1.0000 	   40.0000 	   19.4811
    0.4807 	   12.6933 	    1.0000 	   40.0000 	   19.9181
    0.6332 	   12.8030 	    1.0000 	   40.0000 	   20.3571
    0.6485 	   12.9130 	    1.0000 	   40.0000 	   20.7972
    0.4349 	   13.0243 	    1.0000 	   40.0000 	   21.2422
    0.8164 	   13.1310 	    1.0000 	   40.0000 	   21.6692
    0.8927 	   13.2405 	    1.0000 	   40.0000 	   22.1072
    0.8316 	   13.3500 	    1.0000 	   40.0000 	   22.5453
    0.8774 	   13.4553 	    1.0000 	   40.0000 	   22.9663
    0.9079 	   13.5640 	    1.0000 	   40.0000 	   23.4013
    0.8927 	   13.6683 	    1.0000 	   40.0000 	   23.8183
    1.0605 	   13.7653 	    1.0000 	   40.0000 	   24.2064
    0.8774 	   13.8645 	    1.0000 	   40.0000 	   24.6034
    1.0758 	   13.9638 	    1.0000 	   40.0000 	   25.0004
    1.1063 	   14.0623 	    1.0000 	   40.0000 	   25.3944
    1.0452 	   14.1648 	    1.0000 	   40.0000 	   25.8044
    1.1521 	   14.2635 	    1.0000 	   40.0000 	   26.1995
    1.2894 	   14.3608 	    1.0000 	   40.0000 	   26.5885
    1.0300 	   14.4598 	    1.0000 	   40.0000 	   26.9845
    1.1368 	   14.5690 	    1.0000 	   40.0000 	   27.4215
    1.1215 	   14.6760 	    1.0000 	   40.0000 	   27.8496
    1.2284 	   14.7743 	    1.0000 	   40.0000 	   28.2416
    1.0147 	   14.8720 	    1.0000 	   40.0000 	   28.6326
    0.9689 	   14.9828 	    1.0000 	   40.0000 	   29.0756
    1.1978 	   15.0930 	    1.0000 	   40.0000 	   29.5167
    1.5030 	   15.1978 	    1.0000 	   40.0000 	   29.9357
    1.3199 	   15.3080 	    1.0000 	   40.0000 	   30.3767
    1.4420 	   15.4165 	    1.0000 	   40.0000 	   30.8107
    1.4420 	   15.5260 	    1.0000 	   40.0000 	   31.2488
    1.3352 	   15.6355 	    1.0000 	   40.0000 	   31.6868
    1.4267 	   15.7415 	    1.0000 	   40.0000 	   32.1108
    1.3352 	   15.8480 	    1.0000 	   40.0000 	   32.5368
    1.4420 	   15.9530 	    1.0000 	   40.0000 	   32.9569
    1.5183 	   16.0638 	    1.0000 	   40.0000 	   33.3999
    1.4115 	   16.1653 	    1.0000 	   40.0000 	   33.8059
    1.2284 	   16.2688 	    1.0000 	   40.0000 	   34.2199
    1.5640 	   16.3787 	    1.0000 	   40.0000 	   34.6600
    1.5946 	   16.4888 	    1.0000 	   40.0000 	   35.1000
    1.3504 	   16.5905 	    1.0000 	   40.0000 	   35.5070
    1.7166 	   16.7003 	    1.0000 	   40.0000 	   35.9460
    1.6861 	   16.8120 	    1.0000 	   40.0000 	   36.3931
    1.6403 	   16.9225 	    1.0000 	   40.0000 	   36.8351
    1.6098 	   17.0240 	    1.0000 	   40.0000 	   37.2411
    1.7319 	   17.1313 	    1.0000 	   40.0000 	   37.6701
    1.6403 	   17.2403 	    1.0000 	   40.0000 	   38.1061
    1.4420 	   17.3398 	    1.0000 	   40.0000 	   38.5042
    1.8235 	   17.4480 	    1.0000 	   40.0000 	   38.9372
    1.7472 	   17.5518 	    1.0000 	   40.0000 	   39.3522
    1.6403 	   17.6505 	    1.0000 	   40.0000 	   39.7472
    1.7319 	   17.7590 	    1.0000 	   40.0000 	   40.1813
    1.8540 	   17.8590 	    1.0000 	   40.0000 	   40.5813
    1.7319 	   17.9583 	    1.0000 	   40.0000 	   40.9783
    1.7929 	   18.0668 	    1.0000 	   40.0000 	   41.4123
    1.6403 	   18.1740 	    1.0000 	   40.0000 	   41.8414
    1.8997 	   18.2835 	    1.0000 	   40.0000 	   42.2794
    1.8235 	   18.3900 	    1.0000 	   40.0000 	   42.7054
    1.8845 	   18.5030 	    1.0000 	   40.0000 	   43.1574
    1.8387 	   18.6077 	    1.0000 	   40.0000 	   43.5765
    2.1592 	   18.7180 	    1.0000 	   40.0000 	   44.0175
    1.9760 	   18.8218 	    1.0000 	   40.0000 	   44.4325
    1.8540 	   18.9335 	    1.0000 	   40.0000 	   44.8795
    1.9150 	   19.0425 	    1.0000 	   40.0000 	   45.3156
    1.8997 	   19.1550 	    1.0000 	   40.0000 	   45.7646
    1.9455 	   19.2680 	    1.0000 	   40.0000 	   46.2166
    2.1439 	   19.3778 	    1.0000 	   40.0000 	   46.6556
    2.1744 	   19.4778 	    1.0000 	   40.0000 	   47.0557
    2.1592 	   19.5835 	    1.0000 	   40.0000 	   47.4787
    2.0371 	   19.6855 	    1.0000 	   40.0000 	   47.8867
    2.2202 	   19.7975 	    1.0000 	   40.0000 	   48.3347
    2.0676 	   19.9100 	    1.0000 	   40.0000 	   48.7848
    2.1744 	   20.0265 	    1.0000 	   40.0000 	   49.2508
    2.1744 	   20.1393 	    1.0000 	   40.0000 	   49.7018
    2.1439 	   20.2523 	    1.0000 	   40.0000 	   50.1538
    2.2507 	   20.3623 	    1.0000 	   40.0000 	   50.5939
    2.1286 	   20.4685 	    1.0000 	   40.0000 	   51.0189
    2.2812 	   20.5775 	    1.0000 	   40.0000 	   51.4549
    2.1897 	   20.6778 	    1.0000 	   40.0000 	   51.8559
    2.2660 	   20.7890 	    1.0000 	   40.0000 	   52.3010
    2.2354 	   20.8983 	    1.0000 	   40.0000 	   52.7380
    2.3575 	   21.0085 	    1.0000 	   40.0000 	   53.1790
    2.3423 	   21.1158 	    1.0000 	   40.0000 	   53.6080
    2.4338 	   21.2248 	    1.0000 	   40.0000 	   54.0441
    2.4186 	   21.3360 	    1.0000 	   40.0000 	   54.4891
    2.3728 	   21.4375 	    1.0000 	   40.0000 	   54.8951
    2.4186 	   21.5488 	    1.0000 	   40.0000 	   55.3401
    2.4033 	   21.6568 	    1.0000 	   40.0000 	   55.7722
    2.5864 	   21.7628 	    1.0000 	   40.0000 	   56.1962
    2.4338 	   21.8695 	    1.0000 	   40.0000 	   56.6232
    2.5254 	   21.9768 	    1.0000 	   40.0000 	   57.0522
    2.5559 	   22.0890 	    1.0000 	   40.0000 	   57.5013
    2.6017 	   22.1960 	    1.0000 	   40.0000 	   57.9293
    2.5711 	   22.3093 	    1.0000 	   40.0000 	   58.3823
    2.4948 	   22.4158 	    1.0000 	   40.0000 	   58.8083
    2.6627 	   22.5220 	    1.0000 	   40.0000 	   59.2334
    2.6017 	   22.6333 	    1.0000 	   40.0000 	   59.6784
    2.6932 	   22.7475 	    1.0000 	   41.0000 	    0.1354
    2.6474 	   22.8500 	    1.0000 	   41.0000 	    0.5454
    2.6627 	   22.9610 	    1.0000 	   41.0000 	    0.9895
    2.8000 	   23.0763 	    1.0000 	   41.0000 	    1.4505
    2.6780 	   23.1913 	    1.0000 	   41.0000 	    1.9105
    2.7695 	   23.3058 	    1.0000 	   41.0000 	    2.3685
    2.7848 	   23.4200 	    1.0000 	   41.0000 	    2.8256
    2.8763 	   23.5360 	    1.0000 	   41.0000 	    3.2886
    2.9068 	   23.6463 	    1.0000 	   41.0000 	    3.7296
    2.7543 	   23.7630 	    1.0000 	   41.0000 	    4.1966
    2.9679 	   23.8795 	    1.0000 	   41.0000 	    4.6627
    2.9068 	   23.9958 	    1.0000 	   41.0000 	    5.1277
    2.8458 	   24.1030 	    1.0000 	   41.0000 	    5.5567
    2.8916 	   24.2098 	    1.0000 	   41.0000 	    5.9837
    2.6169 	   24.3190 	    1.0000 	   41.0000 	    6.4208
    2.8611 	   24.4323 	    1.0000 	   41.0000 	    6.8738
    2.8305 	   24.5455 	    1.0000 	   41.0000 	    7.3268
    2.9068 	   24.6498 	    1.0000 	   41.0000 	    7.7438
    3.0442 	   24.7545 	    1.0000 	   41.0000 	    8.1629
    2.9831 	   24.8583 	    1.0000 	   41.0000 	    8.5779
    2.9526 	   24.9623 	    1.0000 	   41.0000 	    8.9939
    3.0747 	   25.0743 	    1.0000 	   41.0000 	    9.4419
    3.0442 	   25.1873 	    1.0000 	   41.0000 	    9.8940
    3.0747 	   25.3040 	    1.0000 	   41.0000 	   10.3610
    2.9068 	   25.4223 	    1.0000 	   41.0000 	   10.8340
    3.1815 	   25.5418 	    1.0000 	   41.0000 	   11.3120
    3.0442 	   25.6593 	    1.0000 	   41.0000 	   11.7821
    3.1205 	   25.7690 	    1.0000 	   41.0000 	   12.2211
    3.2731 	   25.8768 	    1.0000 	   41.0000 	   12.6521
    3.1968 	   25.9888 	    1.0000 	   41.0000 	   13.1002
    3.2273 	   26.1003 	    1.0000 	   41.0000 	   13.5462
    3.3494 	   26.2108 	    1.0000 	   41.0000 	   13.9882
    3.3188 	   26.3190 	    1.0000 	   41.0000 	   14.4212
    3.2883 	   26.4328 	    1.0000 	   41.0000 	   14.8763
    3.4714 	   26.5478 	    1.0000 	   41.0000 	   15.3363
    3.5630 	   26.6563 	    1.0000 	   41.0000 	   15.7703
    3.3036 	   26.7740 	    1.0000 	   41.0000 	   16.2413
    3.4562 	   26.8810 	    1.0000 	   41.0000 	   16.6694
    3.4714 	   26.9890 	    1.0000 	   41.0000 	   17.1014
    3.6851 	   27.0995 	    1.0000 	   41.0000 	   17.5434
    3.5019 	   27.2070 	    1.0000 	   41.0000 	   17.9734
    3.5325 	   27.3158 	    1.0000 	   41.0000 	   18.4085
    3.6240 	   27.4363 	    1.0000 	   41.0000 	   18.8905
    3.5019 	   27.5473 	    1.0000 	   41.0000 	   19.3345
    3.4714 	   27.6593 	    1.0000 	   41.0000 	   19.7825
    3.6240 	   27.7683 	    1.0000 	   41.0000 	   20.2186
    3.5782 	   27.8790 	    1.0000 	   41.0000 	   20.6606
    3.8376 	   27.9870 	    1.0000 	   41.0000 	   21.0926
    3.7003 	   28.0980 	    1.0000 	   41.0000 	   21.5366
    3.6851 	   28.2070 	    1.0000 	   41.0000 	   21.9727
    3.8071 	   28.3190 	    1.0000 	   41.0000 	   22.4207
    3.7308 	   28.4293 	    1.0000 	   41.0000 	   22.8617
    3.9292 	   28.5375 	    1.0000 	   41.0000 	   23.2947
    3.8987 	   28.6463 	    1.0000 	   41.0000 	   23.7298
    3.6851 	   28.7560 	    1.0000 	   41.0000 	   24.1688
    3.8376 	   28.8648 	    1.0000 	   41.0000 	   24.6038
    3.9750 	   28.9848 	    1.0000 	   41.0000 	   25.0838
    3.9292 	   29.1048 	    1.0000 	   41.0000 	   25.5639
    4.0208 	   29.2240 	    1.0000 	   41.0000 	   26.0409
    4.0208 	   29.3343 	    1.0000 	   41.0000 	   26.4819
    4.0665 	   29.4453 	    1.0000 	   41.0000 	   26.9259
    4.0513 	   29.5560 	    1.0000 	   41.0000 	   27.3690
    4.0665 	   29.6743 	    1.0000 	   41.0000 	   27.8420
    4.2496 	   29.7890 	    1.0000 	   41.0000 	   28.3010
    4.1276 	   29.8995 	    1.0000 	   41.0000 	   28.7430
    4.2496 	   30.0150 	    1.0000 	   41.0000 	   29.2051
    4.2802 	   30.1375 	    1.0000 	   41.0000 	   29.6951
    4.1581 	   30.2473 	    1.0000 	   41.0000 	   30.1341
    4.3870 	   30.3580 	    1.0000 	   41.0000 	   30.5772
    4.2039 	   30.4733 	    1.0000 	   41.0000 	   31.0382
    4.4175 	   30.5883 	    1.0000 	   41.0000 	   31.4982
    4.2802 	   30.7038 	    1.0000 	   41.0000 	   31.9602
    4.4327 	   30.8253 	    1.0000 	   41.0000 	   32.4463
    4.3870 	   30.9385 	    1.0000 	   41.0000 	   32.8993
    4.3870 	   31.0513 	    1.0000 	   41.0000 	   33.3503
    4.4633 	   31.1628 	    1.0000 	   41.0000 	   33.7963
    4.5243 	   31.2783 	    1.0000 	   41.0000 	   34.2584
    4.6006 	   31.3893 	    1.0000 	   41.0000 	   34.7024
    4.7379 	   31.5055 	    1.0000 	   41.0000 	   35.1674
    4.5701 	   31.6205 	    1.0000 	   41.0000 	   35.6274
    4.5853 	   31.7330 	    1.0000 	   41.0000 	   36.0775
    4.6006 	   31.8533 	    1.0000 	   41.0000 	   36.5585
    4.6616 	   31.9725 	    1.0000 	   41.0000 	   37.0355
    4.7990 	   32.0868 	    1.0000 	   41.0000 	   37.4925
    4.4938 	   32.2005 	    1.0000 	   41.0000 	   37.9476
    4.7379 	   32.3123 	    1.0000 	   41.0000 	   38.3936
    4.7837 	   32.4238 	    1.0000 	   41.0000 	   38.8396
    5.0431 	   32.5418 	    1.0000 	   41.0000 	   39.3116
    4.5853 	   32.6608 	    1.0000 	   41.0000 	   39.7877
    4.9668 	   32.7798 	    1.0000 	   41.0000 	   40.2637
    5.0736 	   32.8975 	    1.0000 	   41.0000 	   40.7347
    5.1347 	   33.0165 	    1.0000 	   41.0000 	   41.2108
    5.0278 	   33.1328 	    1.0000 	   41.0000 	   41.6758
    5.2110 	   33.2470 	    1.0000 	   41.0000 	   42.1328
    5.2110 	   33.3625 	    1.0000 	   41.0000 	   42.5948
    5.1041 	   33.4765 	    1.0000 	   41.0000 	   43.0509
    5.1652 	   33.5903 	    1.0000 	   41.0000 	   43.5059
    5.2873 	   33.7138 	    1.0000 	   41.0000 	   43.9999
    5.1957 	   33.8388 	    1.0000 	   41.0000 	   44.4999
    5.2873 	   33.9543 	    1.0000 	   41.0000 	   44.9620
    5.3483 	   34.0710 	    1.0000 	   41.0000 	   45.4290
    5.4093 	   34.1925 	    1.0000 	   41.0000 	   45.9150
    5.4551 	   34.3103 	    1.0000 	   41.0000 	   46.3861
    5.5161 	   34.4258 	    1.0000 	   41.0000 	   46.8481
    5.5009 	   34.5400 	    1.0000 	   41.0000 	   47.3051
    5.5467 	   34.6585 	    1.0000 	   41.0000 	   47.7791
    5.5161 	   34.7743 	    1.0000 	   41.0000 	   48.2422
    5.6382 	   34.8905 	    1.0000 	   41.0000 	   48.7072
    5.6077 	   35.0088 	    1.0000 	   41.0000 	   49.1802
    5.6840 	   35.1338 	    1.0000 	   41.0000 	   49.6802
    5.7603 	   35.2510 	    1.0000 	   41.0000 	   50.1493
    5.7603 	   35.3655 	    1.0000 	   41.0000 	   50.6073
    5.8518 	   35.4830 	    1.0000 	   41.0000 	   51.0773
    5.5619 	   35.6010 	    1.0000 	   41.0000 	   51.5494
    5.9281 	   35.7175 	    1.0000 	   41.0000 	   52.0154
    5.9892 	   35.8380 	    1.0000 	   41.0000 	   52.4974
    5.8824 	   35.9590 	    1.0000 	   41.0000 	   52.9814
    6.0349 	   36.0828 	    1.0000 	   41.0000 	   53.4765
    6.1265 	   36.1978 	    1.0000 	   41.0000 	   53.9365
    6.1875 	   36.3195 	    1.0000 	   41.0000 	   54.4235
    6.3096 	   36.4393 	    1.0000 	   41.0000 	   54.9025
    6.2638 	   36.5648 	    1.0000 	   41.0000 	   55.4046
    6.3706 	   36.6818 	    1.0000 	   41.0000 	   55.8716
    6.4317 	   36.7995 	    1.0000 	   41.0000 	   56.3426
    6.0502 	   36.9258 	    1.0000 	   41.0000 	   56.8467
    6.4317 	   37.0452 	    1.0000 	   41.0000 	   57.3257
    6.5690 	   37.1663 	    1.0000 	   41.0000 	   57.8097
    6.5232 	   37.2848 	    1.0000 	   41.0000 	   58.2837
    6.5690 	   37.4090 	    1.0000 	   41.0000 	   58.7808
    6.6453 	   37.5253 	    1.0000 	   41.0000 	   59.2458
    6.8742 	   37.6520 	    1.0000 	   41.0000 	   59.7528
    6.8132 	   37.7718 	    1.0000 	   42.0000 	    0.2318
    6.8437 	   37.8898 	    1.0000 	   42.0000 	    0.7039
    6.8284 	   38.0143 	    1.0000 	   42.0000 	    1.2019
    6.9810 	   38.1353 	    1.0000 	   42.0000 	    1.6859
    7.0115 	   38.2530 	    1.0000 	   42.0000 	    2.1570
    7.0573 	   38.3730 	    1.0000 	   42.0000 	    2.6370
    7.0878 	   38.4888 	    1.0000 	   42.0000 	    3.1000
    7.0878 	   38.6040 	    1.0000 	   42.0000 	    3.5610
    7.3014 	   38.7225 	    1.0000 	   42.0000 	    4.0351
    7.4540 	   38.8430 	    1.0000 	   42.0000 	    4.5171
    7.3167 	   38.9595 	    1.0000 	   42.0000 	    4.9831
    7.1183 	   39.0790 	    1.0000 	   42.0000 	    5.4611
    7.5608 	   39.1988 	    1.0000 	   42.0000 	    5.9402
    7.5456 	   39.3153 	    1.0000 	   42.0000 	    6.4062
    7.6982 	   39.4313 	    1.0000 	   42.0000 	    6.8702
    7.4235 	   39.5500 	    1.0000 	   42.0000 	    7.3453
    7.5151 	   39.6763 	    1.0000 	   42.0000 	    7.8503
    7.7440 	   39.7920 	    1.0000 	   42.0000 	    8.3133
    7.9118 	   39.9085 	    1.0000 	   42.0000 	    8.7793
    7.9271 	   40.0288 	    1.0000 	   42.0000 	    9.2604
    8.0034 	   40.1473 	    1.0000 	   42.0000 	    9.7344
    8.0491 	   40.2668 	    1.0000 	   42.0000 	   10.2124
    8.1254 	   40.3868 	    1.0000 	   42.0000 	   10.6924
    8.1102 	   40.5088 	    1.0000 	   42.0000 	   11.1805
    8.3085 	   40.6290 	    1.0000 	   42.0000 	   11.6615
    8.2322 	   40.7465 	    1.0000 	   42.0000 	   12.1315
    8.4764 	   40.8653 	    1.0000 	   42.0000 	   12.6066
    8.4001 	   40.9843 	    1.0000 	   42.0000 	   13.0816
    8.4611 	   41.1040 	    1.0000 	   42.0000 	   13.5606
    8.5832 	   41.2225 	    1.0000 	   42.0000 	   14.0346
    8.4764 	   41.3413 	    1.0000 	   42.0000 	   14.5097
    8.3085 	   41.4600 	    1.0000 	   42.0000 	   14.9847
    8.4916 	   41.5823 	    1.0000 	   42.0000 	   15.4737
    8.1559 	   41.7008 	    1.0000 	   42.0000 	   15.9477
    8.3238 	   41.8195 	    1.0000 	   42.0000 	   16.4228
    8.4764 	   41.9383 	    1.0000 	   42.0000 	   16.8978
    8.4611 	   42.0603 	    1.0000 	   42.0000 	   17.3858
    8.3543 	   42.1795 	    1.0000 	   42.0000 	   17.8629
    8.3696 	   42.3045 	    1.0000 	   42.0000 	   18.3629
    8.2780 	   42.4260 	    1.0000 	   42.0000 	   18.8489
    8.2628 	   42.5468 	    1.0000 	   42.0000 	   19.3319
    8.2322 	   42.6663 	    1.0000 	   42.0000 	   19.8100
    8.1559 	   42.7855 	    1.0000 	   42.0000 	   20.2870
    8.1254 	   42.9065 	    1.0000 	   42.0000 	   20.7710
    8.0339 	   43.0308 	    1.0000 	   42.0000 	   21.2680
    8.0797 	   43.1515 	    1.0000 	   42.0000 	   21.7511
    8.3085 	   43.2738 	    1.0000 	   42.0000 	   22.2401
    8.1865 	   43.3963 	    1.0000 	   42.0000 	   22.7301
    8.1407 	   43.5170 	    1.0000 	   42.0000 	   23.2132
    8.0949 	   43.6370 	    1.0000 	   42.0000 	   23.6932
    8.0339 	   43.7623 	    1.0000 	   42.0000 	   24.1942
    8.0339 	   43.8865 	    1.0000 	   42.0000 	   24.6912
    7.9881 	   44.0093 	    1.0000 	   42.0000 	   25.1823
    8.1102 	   44.1305 	    1.0000 	   42.0000 	   25.6673
    8.0186 	   44.2553 	    1.0000 	   42.0000 	   26.1663
    8.0186 	   44.3805 	    1.0000 	   42.0000 	   26.6674
    8.1102 	   44.5025 	    1.0000 	   42.0000 	   27.1554
    7.9881 	   44.6235 	    1.0000 	   42.0000 	   27.6394
    7.9881 	   44.7455 	    1.0000 	   42.0000 	   28.1274
    7.9576 	   44.8690 	    1.0000 	   42.0000 	   28.6215
    8.0034 	   44.9923 	    1.0000 	   42.0000 	   29.1145
    7.9881 	   45.1253 	    1.0000 	   42.0000 	   29.6465
    7.8660 	   45.2475 	    1.0000 	   42.0000 	   30.1356
    7.8508 	   45.3693 	    1.0000 	   42.0000 	   30.6216
    7.9118 	   45.4918 	    1.0000 	   42.0000 	   31.1116
    8.1407 	   45.6153 	    1.0000 	   42.0000 	   31.6056
    7.9118 	   45.7385 	    1.0000 	   42.0000 	   32.0987
    7.8508 	   45.8655 	    1.0000 	   42.0000 	   32.6067
    7.8050 	   45.9883 	    1.0000 	   42.0000 	   33.0977
    7.9271 	   46.1178 	    1.0000 	   42.0000 	   33.6158
    7.8508 	   46.2438 	    1.0000 	   42.0000 	   34.1198
    8.0034 	   46.3795 	    1.0000 	   42.0000 	   34.6628
    7.8508 	   46.5115 	    1.0000 	   42.0000 	   35.1908
    7.9423 	   46.6423 	    1.0000 	   42.0000 	   35.7139
    7.5761 	   46.7665 	    1.0000 	   42.0000 	   36.2109
    7.4235 	   46.8903 	    1.0000 	   42.0000 	   36.7059
    7.8813 	   47.0145 	    1.0000 	   42.0000 	   37.2030
    7.9118 	   47.1395 	    1.0000 	   42.0000 	   37.7030
    7.9271 	   47.2670 	    1.0000 	   42.0000 	   38.2130
    7.7134 	   47.4013 	    1.0000 	   42.0000 	   38.7500
    7.7287 	   47.5258 	    1.0000 	   42.0000 	   39.2481
    7.7745 	   47.6520 	    1.0000 	   42.0000 	   39.7531
    7.8508 	   47.7760 	    1.0000 	   42.0000 	   40.2491
    7.8202 	   47.9020 	    1.0000 	   42.0000 	   40.7532
    7.7287 	   48.0295 	    1.0000 	   42.0000 	   41.2632
    7.5303 	   48.1578 	    1.0000 	   42.0000 	   41.7762
    7.6677 	   48.2853 	    1.0000 	   42.0000 	   42.2863
    7.5608 	   48.4130 	    1.0000 	   42.0000 	   42.7973
    7.7440 	   48.5475 	    1.0000 	   42.0000 	   43.3353
    7.8508 	   48.6760 	    1.0000 	   42.0000 	   43.8493
    7.8508 	   48.8080 	    1.0000 	   42.0000 	   44.3774
    7.8508 	   48.9405 	    1.0000 	   42.0000 	   44.9074
    7.7287 	   49.0740 	    1.0000 	   42.0000 	   45.4414
    7.7287 	   49.2115 	    1.0000 	   42.0000 	   45.9915
    7.7134 	   49.3445 	    1.0000 	   42.0000 	   46.5235
    7.8202 	   49.4740 	    1.0000 	   42.0000 	   47.0415
    7.5608 	   49.6035 	    1.0000 	   42.0000 	   47.5596
    7.7592 	   49.7365 	    1.0000 	   42.0000 	   48.0906
    7.6982 	   49.8700 	    1.0000 	   42.0000 	   48.6246
    7.7592 	   50.0045 	    1.0000 	   42.0000 	   49.1626
    7.7287 	   50.1353 	    1.0000 	   42.0000 	   49.6857
    7.7745 	   50.2643 	    1.0000 	   42.0000 	   50.2017
    7.5761 	   50.3935 	    1.0000 	   42.0000 	   50.7187
    7.6982 	   50.5305 	    1.0000 	   42.0000 	   51.2668
    7.6219 	   50.6613 	    1.0000 	   42.0000 	   51.7898
    7.6219 	   50.7988 	    1.0000 	   42.0000 	   52.3398
    7.6677 	   50.9313 	    1.0000 	   42.0000 	   52.8699
    7.6371 	   51.0643 	    1.0000 	   42.0000 	   53.4019
    7.7287 	   51.1968 	    1.0000 	   42.0000 	   53.9319
    7.6066 	   51.3323 	    1.0000 	   42.0000 	   54.4739
    7.8050 	   51.4598 	    1.0000 	   42.0000 	   54.9840
    7.6219 	   51.5905 	    1.0000 	   42.0000 	   55.5070
    7.6524 	   51.7185 	    1.0000 	   42.0000 	   56.0190
    7.4388 	   51.8470 	    1.0000 	   42.0000 	   56.5331
    7.5761 	   51.9758 	    1.0000 	   42.0000 	   57.0481
    7.6219 	   52.1065 	    1.0000 	   42.0000 	   57.5711
    7.5761 	   52.2390 	    1.0000 	   42.0000 	   58.1012
    7.5914 	   52.3690 	    1.0000 	   42.0000 	   58.6212
    7.6371 	   52.4975 	    1.0000 	   42.0000 	   59.1352
    7.6677 	   52.6303 	    1.0000 	   42.0000 	   59.6662
    7.6982 	   52.7643 	    1.0000 	   43.0000 	    0.2023
    7.5456 	   52.8983 	    1.0000 	   43.0000 	    0.7383
    7.4693 	   53.0365 	    1.0000 	   43.0000 	    1.2913
    7.5608 	   53.1720 	    1.0000 	   43.0000 	    1.8334
    7.6829 	   53.3058 	    1.0000 	   43.0000 	    2.3684
    7.6524 	   53.4395 	    1.0000 	   43.0000 	    2.9034
    7.5303 	   53.5715 	    1.0000 	   43.0000 	    3.4315
    7.5151 	   53.7050 	    1.0000 	   43.0000 	    3.9655
    7.5456 	   53.8380 	    1.0000 	   43.0000 	    4.4975
    7.5456 	   53.9685 	    1.0000 	   43.0000 	    5.0196
    7.6524 	   54.1015 	    1.0000 	   43.0000 	    5.5506
    7.6219 	   54.2335 	    1.0000 	   43.0000 	    6.0786
    7.5151 	   54.3653 	    1.0000 	   43.0000 	    6.6056
    7.5151 	   54.5033 	    1.0000 	   43.0000 	    7.1577
    7.5151 	   54.6360 	    1.0000 	   43.0000 	    7.6887
    7.2099 	   54.7675 	    1.0000 	   43.0000 	    8.2147
    7.5151 	   54.8988 	    1.0000 	   43.0000 	    8.7398
    7.5303 	   55.0370 	    1.0000 	   43.0000 	    9.2928
    7.4998 	   55.1700 	    1.0000 	   43.0000 	    9.8248
    7.4998 	   55.3025 	    1.0000 	   43.0000 	   10.3549
    7.4235 	   55.4380 	    1.0000 	   43.0000 	   10.8969
    7.5151 	   55.5698 	    1.0000 	   43.0000 	   11.4239
    7.4998 	   55.7015 	    1.0000 	   43.0000 	   11.9509
    7.6219 	   55.8430 	    1.0000 	   43.0000 	   12.5170
    7.4998 	   55.9828 	    1.0000 	   43.0000 	   13.0760
    7.2709 	   56.1193 	    1.0000 	   43.0000 	   13.6220
    7.4540 	   56.2523 	    1.0000 	   43.0000 	   14.1541
    7.3930 	   56.3850 	    1.0000 	   43.0000 	   14.6851
    7.4693 	   56.5215 	    1.0000 	   43.0000 	   15.2311
    7.1946 	   56.6555 	    1.0000 	   43.0000 	   15.7672
    6.7979 	   56.7905 	    1.0000 	   43.0000 	   16.3072
    6.6758 	   56.9243 	    1.0000 	   43.0000 	   16.8422
    6.5690 	   57.0580 	    1.0000 	   43.0000 	   17.3773
    6.5080 	   57.1918 	    1.0000 	   43.0000 	   17.9123
    6.2486 	   57.3263 	    1.0000 	   43.0000 	   18.4503
    5.8976 	   57.4623 	    1.0000 	   43.0000 	   18.9944
    6.1418 	   57.6018 	    1.0000 	   43.0000 	   19.5524
    5.8213 	   57.7373 	    1.0000 	   43.0000 	   20.0944
    5.7755 	   57.8765 	    1.0000 	   43.0000 	   20.6514
    5.5314 	   58.0150 	    1.0000 	   43.0000 	   21.2055
    5.5009 	   58.1543 	    1.0000 	   43.0000 	   21.7625
    5.4704 	   58.2965 	    1.0000 	   43.0000 	   22.3315
    5.5467 	   58.4325 	    1.0000 	   43.0000 	   22.8756
    5.4246 	   58.5773 	    1.0000 	   43.0000 	   23.4536
    5.1499 	   58.7220 	    1.0000 	   43.0000 	   24.0326
    4.9973 	   58.8600 	    1.0000 	   43.0000 	   24.5847
    4.9210 	   59.0068 	    1.0000 	   43.0000 	   25.1717
    5.0431 	   59.1483 	    1.0000 	   43.0000 	   25.7377
    4.7837 	   59.2855 	    1.0000 	   43.0000 	   26.2868
    4.7379 	   59.4303 	    1.0000 	   43.0000 	   26.8658
    4.6769 	   59.5783 	    1.0000 	   43.0000 	   27.4578
    4.6159 	   59.7165 	    1.0000 	   43.0000 	   28.0109
    4.5548 	   59.8535 	    1.0000 	   43.0000 	   28.5589
    4.6616 	   59.9923 	    1.0000 	   43.0000 	   29.1139
    4.4938 	   60.1305 	    1.0000 	   43.0000 	   29.6670
    4.4022 	   60.2690 	    1.0000 	   43.0000 	   30.2210
    4.3107 	   60.4053 	    1.0000 	   43.0000 	   30.7660
    4.2954 	   60.5530 	    1.0000 	   43.0000 	   31.3571
    4.2496 	   60.6928 	    1.0000 	   43.0000 	   31.9161
    4.0818 	   60.8305 	    1.0000 	   43.0000 	   32.4671
    4.1733 	   60.9733 	    1.0000 	   43.0000 	   33.0382
    4.0513 	   61.1188 	    1.0000 	   43.0000 	   33.6202
    3.9902 	   61.2630 	    1.0000 	   43.0000 	   34.1972
    3.9445 	   61.4050 	    1.0000 	   43.0000 	   34.7653
    3.8529 	   61.5545 	    1.0000 	   43.0000 	   35.3633
    3.8224 	   61.6970 	    1.0000 	   43.0000 	   35.9333
    3.7919 	   61.8413 	    1.0000 	   43.0000 	   36.5104
    3.7461 	   61.9818 	    1.0000 	   43.0000 	   37.0724
    3.8376 	   62.1310 	    1.0000 	   43.0000 	   37.6694
    3.6240 	   62.2778 	    1.0000 	   43.0000 	   38.2565
    3.6698 	   62.4233 	    1.0000 	   43.0000 	   38.8385
    3.6393 	   62.5708 	    1.0000 	   43.0000 	   39.4285
    3.6545 	   62.7140 	    1.0000 	   43.0000 	   40.0016
    3.5477 	   62.8573 	    1.0000 	   43.0000 	   40.5736
    3.6240 	   63.0000 	    1.0000 	   43.0000 	   41.1446
    3.3341 	   63.1448 	    1.0000 	   43.0000 	   41.7227
    3.4714 	   63.2883 	    1.0000 	   43.0000 	   42.2977
    3.5019 	   63.4290 	    1.0000 	   43.0000 	   42.8607
    3.4257 	   63.5770 	    1.0000 	   43.0000 	   43.4528
    3.3494 	   63.7225 	    1.0000 	   43.0000 	   44.0348
    3.2578 	   63.8663 	    1.0000 	   43.0000 	   44.6098
    3.1357 	   64.0145 	    1.0000 	   43.0000 	   45.2029
    3.2120 	   64.1648 	    1.0000 	   43.0000 	   45.8039
    3.0594 	   64.3150 	    1.0000 	   43.0000 	   46.4049
    3.1052 	   64.4598 	    1.0000 	   43.0000 	   46.9840
    3.2273 	   64.6053 	    1.0000 	   43.0000 	   47.5660
    2.6780 	   64.7467 	    1.0000 	   43.0000 	   48.1320
    2.7085 	   64.8915 	    1.0000 	   43.0000 	   48.7111
    2.8305 	   65.0373 	    1.0000 	   43.0000 	   49.2941
    2.9679 	   65.1840 	    1.0000 	   43.0000 	   49.8811
    2.8611 	   65.3278 	    1.0000 	   43.0000 	   50.4562
    2.8763 	   65.4733 	    1.0000 	   43.0000 	   51.0382
    3.0289 	   65.6200 	    1.0000 	   43.0000 	   51.6252
    2.6627 	   65.7675 	    1.0000 	   43.0000 	   52.2153
    2.8305 	   65.9110 	    1.0000 	   43.0000 	   52.7893
    2.7695 	   66.0558 	    1.0000 	   43.0000 	   53.3683
    2.8611 	   66.2057 	    1.0000 	   43.0000 	   53.9684
    2.6474 	   66.3505 	    1.0000 	   43.0000 	   54.5474
    2.7085 	   66.4943 	    1.0000 	   43.0000 	   55.1224
    2.6017 	   66.6420 	    1.0000 	   43.0000 	   55.7135
    2.6017 	   66.7945 	    1.0000 	   43.0000 	   56.3235
    2.5559 	   66.9428 	    1.0000 	   43.0000 	   56.9165
    2.4796 	   67.0878 	    1.0000 	   43.0000 	   57.4966
    2.7390 	   67.2318 	    1.0000 	   43.0000 	   58.0716
    2.5101 	   67.3818 	    1.0000 	   43.0000 	   58.6716
    2.5406 	   67.5308 	    1.0000 	   43.0000 	   59.2677
    2.4491 	   67.6775 	    1.0000 	   43.0000 	   59.8547
    2.4491 	   67.8240 	    1.0000 	   44.0000 	    0.4407
    2.4491 	   67.9733 	    1.0000 	   44.0000 	    1.0378
    2.4796 	   68.1290 	    1.0000 	   44.0000 	    1.6608
    2.3728 	   68.2750 	    1.0000 	   44.0000 	    2.2448
    2.5406 	   68.4193 	    1.0000 	   44.0000 	    2.8219
    2.2812 	   68.5693 	    1.0000 	   44.0000 	    3.4219
    2.0371 	   68.7197 	    1.0000 	   44.0000 	    4.0239
    2.2965 	   68.8740 	    1.0000 	   44.0000 	    4.6410
    2.1592 	   69.0263 	    1.0000 	   44.0000 	    5.2500
    2.2202 	   69.1763 	    1.0000 	   44.0000 	    5.8500
    2.2660 	   69.3232 	    1.0000 	   44.0000 	    6.4381
    2.1897 	   69.4733 	    1.0000 	   44.0000 	    7.0381
    2.2202 	   69.6213 	    1.0000 	   44.0000 	    7.6301
    2.2202 	   69.7670 	    1.0000 	   44.0000 	    8.2132
    1.7777 	   69.9143 	    1.0000 	   44.0000 	    8.8022
    1.9913 	   70.0670 	    1.0000 	   44.0000 	    9.4132
    2.0676 	   70.2165 	    1.0000 	   44.0000 	   10.0113
    2.0218 	   70.3655 	    1.0000 	   44.0000 	   10.6073
    1.9913 	   70.5153 	    1.0000 	   44.0000 	   11.2063
    1.9913 	   70.6637 	    1.0000 	   44.0000 	   11.8004
    1.8997 	   70.8128 	    1.0000 	   44.0000 	   12.3964
    1.9455 	   70.9635 	    1.0000 	   44.0000 	   12.9994
    1.9455 	   71.1175 	    1.0000 	   44.0000 	   13.6155
    1.8235 	   71.2673 	    1.0000 	   44.0000 	   14.2145
    1.8692 	   71.4173 	    1.0000 	   44.0000 	   14.8145
    1.8845 	   71.5673 	    1.0000 	   44.0000 	   15.4136
    1.7929 	   71.7168 	    1.0000 	   44.0000 	   16.0116
    1.9303 	   71.8690 	    1.0000 	   44.0000 	   16.6206
    1.8540 	   72.0180 	    1.0000 	   44.0000 	   17.2167
    1.8082 	   72.1702 	    1.0000 	   44.0000 	   17.8257
    1.8387 	   72.3213 	    1.0000 	   44.0000 	   18.4298
    1.7624 	   72.4788 	    1.0000 	   44.0000 	   19.0598
    1.7166 	   72.6320 	    1.0000 	   44.0000 	   19.6728
    1.6251 	   72.7873 	    1.0000 	   44.0000 	   20.2939
    1.7166 	   72.9390 	    1.0000 	   44.0000 	   20.9009
    1.6709 	   73.0908 	    1.0000 	   44.0000 	   21.5079
    1.5640 	   73.2438 	    1.0000 	   44.0000 	   22.1200
    1.5793 	   73.3938 	    1.0000 	   44.0000 	   22.7200
    1.5183 	   73.5470 	    1.0000 	   44.0000 	   23.3330
    1.6098 	   73.7035 	    1.0000 	   44.0000 	   23.9591
    1.5488 	   73.8535 	    1.0000 	   44.0000 	   24.5591
    1.6251 	   74.0053 	    1.0000 	   44.0000 	   25.1661
    1.2436 	   74.1578 	    1.0000 	   44.0000 	   25.7762
    1.4725 	   74.3125 	    1.0000 	   44.0000 	   26.3952
    1.5030 	   74.4680 	    1.0000 	   44.0000 	   27.0172
    1.4878 	   74.6193 	    1.0000 	   44.0000 	   27.6223
    1.3809 	   74.7690 	    1.0000 	   44.0000 	   28.2213
    1.5183 	   74.9200 	    1.0000 	   44.0000 	   28.8253
    1.2589 	   75.0740 	    1.0000 	   44.0000 	   29.4414
    1.3504 	   75.2280 	    1.0000 	   44.0000 	   30.0574
    1.3657 	   75.3843 	    1.0000 	   44.0000 	   30.6825
    1.3046 	   75.5395 	    1.0000 	   44.0000 	   31.3035
    1.2284 	   75.6940 	    1.0000 	   44.0000 	   31.9215
    1.3657 	   75.8453 	    1.0000 	   44.0000 	   32.5266
    1.0300 	   75.9970 	    1.0000 	   44.0000 	   33.1326
    1.2741 	   76.1538 	    1.0000 	   44.0000 	   33.7596
    1.1978 	   76.3053 	    1.0000 	   44.0000 	   34.3657
    1.1673 	   76.4653 	    1.0000 	   44.0000 	   35.0057
    1.3046 	   76.6183 	    1.0000 	   44.0000 	   35.6177
    1.1521 	   76.7743 	    1.0000 	   44.0000 	   36.2418
    1.1978 	   76.9295 	    1.0000 	   44.0000 	   36.8628
    1.1215 	   77.0885 	    1.0000 	   44.0000 	   37.4988
    0.8774 	   77.2408 	    1.0000 	   44.0000 	   38.1079
    1.0910 	   77.3933 	    1.0000 	   44.0000 	   38.7179
    1.0910 	   77.5463 	    1.0000 	   44.0000 	   39.3299
    1.0300 	   77.7008 	    1.0000 	   44.0000 	   39.9480
    0.7248 	   77.8545 	    1.0000 	   44.0000 	   40.5630
    0.9689 	   78.0088 	    1.0000 	   44.0000 	   41.1801
    0.9384 	   78.1688 	    1.0000 	   44.0000 	   41.8201
    0.8469 	   78.3223 	    1.0000 	   44.0000 	   42.4341
    1.0605 	   78.4790 	    1.0000 	   44.0000 	   43.0612
    0.9384 	   78.6338 	    1.0000 	   44.0000 	   43.6802
    0.7553 	   78.7915 	    1.0000 	   44.0000 	   44.3112
    0.8316 	   78.9533 	    1.0000 	   44.0000 	   44.9583
    0.9384 	   79.1090 	    1.0000 	   44.0000 	   45.5813
    0.8011 	   79.2685 	    1.0000 	   44.0000 	   46.2193
    0.7706 	   79.4228 	    1.0000 	   44.0000 	   46.8364
    0.6943 	   79.5858 	    1.0000 	   44.0000 	   47.4884
    0.7858 	   79.7443 	    1.0000 	   44.0000 	   48.1224
    0.8621 	   79.9035 	    1.0000 	   44.0000 	   48.7595
    0.7706 	   80.0608 	    1.0000 	   44.0000 	   49.3885
    0.7248 	   80.2180 	    1.0000 	   44.0000 	   50.0176
    0.6332 	   80.3753 	    1.0000 	   44.0000 	   50.6456
    0.3738 	   80.5360 	    1.0000 	   44.0000 	   51.2886
    0.6790 	   80.6883 	    1.0000 	   44.0000 	   51.8977
    0.6180 	   80.8413 	    1.0000 	   44.0000 	   52.5097
    0.5570 	   80.9938 	    1.0000 	   44.0000 	   53.1197
    0.5570 	   81.1480 	    1.0000 	   44.0000 	   53.7368
    0.4196 	   81.3005 	    1.0000 	   44.0000 	   54.3468
    0.5722 	   81.4573 	    1.0000 	   44.0000 	   54.9738
    0.4196 	   81.6128 	    1.0000 	   44.0000 	   55.5959
    0.4349 	   81.7660 	    1.0000 	   44.0000 	   56.2089
    0.4044 	   81.9183 	    1.0000 	   44.0000 	   56.8179
    0.3586 	   82.0725 	    1.0000 	   44.0000 	   57.4350
    0.3586 	   82.2255 	    1.0000 	   44.0000 	   58.0470
    0.3128 	   82.3810 	    1.0000 	   44.0000 	   58.6691
    0.2518 	   82.5370 	    1.0000 	   44.0000 	   59.2931
    0.4349 	   82.6918 	    1.0000 	   44.0000 	   59.9121
    0.4044 	   82.8478 	    1.0000 	   45.0000 	    0.5362
    0.2060 	   83.0018 	    1.0000 	   45.0000 	    1.1522
    0.2365 	   83.1573 	    1.0000 	   45.0000 	    1.7742
    0.2060 	   83.3115 	    1.0000 	   45.0000 	    2.3913
    0.1602 	   83.4665 	    1.0000 	   45.0000 	    3.0113
    0.1602 	   83.6210 	    1.0000 	   45.0000 	    3.6293
    0.2670 	   83.7760 	    1.0000 	   45.0000 	    4.2494
    0.3738 	   83.9333 	    1.0000 	   45.0000 	    4.8784
    0.1144 	   84.0898 	    1.0000 	   45.0000 	    5.5044
    0.2060 	   84.2455 	    1.0000 	   45.0000 	    6.1275
    0.0381 	   84.4013 	    1.0000 	   45.0000 	    6.7505
    0.0992 	   84.5588 	    1.0000 	   45.0000 	    7.3806
    0.2670 	   84.7158 	    1.0000 	   45.0000 	    8.0076
    0.2060 	   84.8738 	    1.0000 	   45.0000 	    8.6396
   -0.1450 	   85.0303 	    1.0000 	   45.0000 	    9.2657
    0.0076 	   85.1895 	    1.0000 	   45.0000 	    9.9027
    0.2213 	   85.3465 	    1.0000 	   45.0000 	   10.5307
    0.1755 	   85.5105 	    1.0000 	   45.0000 	   11.1868
    0.0992 	   85.6705 	    1.0000 	   45.0000 	   11.8268
    0.0076 	   85.8280 	    1.0000 	   45.0000 	   12.4568
   -0.0534 	   85.9873 	    1.0000 	   45.0000 	   13.0939
    0.1755 	   86.1455 	    1.0000 	   45.0000 	   13.7269
    0.0839 	   86.3020 	    1.0000 	   45.0000 	   14.3529
    0.0992 	   86.4643 	    1.0000 	   45.0000 	   15.0020
    0.1297 	   86.6213 	    1.0000 	   45.0000 	   15.6300
    0.1755 	   86.7785 	    1.0000 	   45.0000 	   16.2591
    0.0839 	   86.9400 	    1.0000 	   45.0000 	   16.9051
    0.0076 	   87.0965 	    1.0000 	   45.0000 	   17.5311
   -0.0229 	   87.2560 	    1.0000 	   45.0000 	   18.1692
    0.0839 	   87.4145 	    1.0000 	   45.0000 	   18.8032
    0.0839 	   87.5733 	    1.0000 	   45.0000 	   19.4382
    0.1602 	   87.7320 	    1.0000 	   45.0000 	   20.0733
    0.1907 	   87.8903 	    1.0000 	   45.0000 	   20.7063
    0.0992 	   88.0490 	    1.0000 	   45.0000 	   21.3413
    0.2365 	   88.2115 	    1.0000 	   45.0000 	   21.9914
    0.0076 	   88.3695 	    1.0000 	   45.0000 	   22.6234
    0.0992 	   88.5305 	    1.0000 	   45.0000 	   23.2675
    0.1907 	   88.6898 	    1.0000 	   45.0000 	   23.9045
    0.1297 	   88.8535 	    1.0000 	   45.0000 	   24.5595
    0.0076 	   89.0123 	    1.0000 	   45.0000 	   25.1946
    0.1755 	   89.1715 	    1.0000 	   45.0000 	   25.8306
   -0.0076 	   89.3310 	    1.0000 	   45.0000 	   26.4686
    0.0381 	   89.4943 	    1.0000 	   45.0000 	   27.1217
    0.1297 	   89.6573 	    1.0000 	   45.0000 	   27.7737
    0.2060 	   89.8223 	    1.0000 	   45.0000 	   28.4338
    0.1450 	   89.9883 	    1.0000 	   45.0000 	   29.0978
    0.0229 	   90.1530 	    1.0000 	   45.0000 	   29.7568
    0.0076 	   90.3163 	    1.0000 	   45.0000 	   30.4099
    0.0687 	   90.4820 	    1.0000 	   45.0000 	   31.0729
   -0.0534 	   90.6460 	    1.0000 	   45.0000 	   31.7289
    0.2060 	   90.8103 	    1.0000 	   45.0000 	   32.3860
    0.0076 	   90.9748 	    1.0000 	   45.0000 	   33.0440
   -0.0381 	   91.1398 	    1.0000 	   45.0000 	   33.7041
    0.1602 	   91.3035 	    1.0000 	   45.0000 	   34.3591
    0.2213 	   91.4738 	    1.0000 	   45.0000 	   35.0401
    0.1450 	   91.6440 	    1.0000 	   45.0000 	   35.7212
    0.2670 	   91.8130 	    1.0000 	   45.0000 	   36.3972
    0.0229 	   91.9798 	    1.0000 	   45.0000 	   37.0642
    0.1602 	   92.1508 	    1.0000 	   45.0000 	   37.7483
    0.0687 	   92.3203 	    1.0000 	   45.0000 	   38.4263
    0.0687 	   92.4898 	    1.0000 	   45.0000 	   39.1044
    0.0076 	   92.6555 	    1.0000 	   45.0000 	   39.7674
    0.0992 	   92.8265 	    1.0000 	   45.0000 	   40.4514
    0.1755 	   92.9945 	    1.0000 	   45.0000 	   41.1235
    0.0687 	   93.1680 	    1.0000 	   45.0000 	   41.8175
    0.0534 	   93.3365 	    1.0000 	   45.0000 	   42.4916
    0.0534 	   93.5110 	    1.0000 	   45.0000 	   43.1886
    0.2060 	   93.6770 	    1.0000 	   45.0000 	   43.8526
    0.0381 	   93.8440 	    1.0000 	   45.0000 	   44.5197
    0.0229 	   94.0168 	    1.0000 	   45.0000 	   45.2117
    0.1297 	   94.1940 	    1.0000 	   45.0000 	   45.9208
    0.2060 	   94.3605 	    1.0000 	   45.0000 	   46.5868
    0.0229 	   94.5303 	    1.0000 	   45.0000 	   47.2658
    0.0534 	   94.6998 	    1.0000 	   45.0000 	   47.9439
    0.0839 	   94.8765 	    1.0000 	   45.0000 	   48.6509
    0.2670 	   95.0505 	    1.0000 	   45.0000 	   49.3470
    0.0992 	   95.2215 	    1.0000 	   45.0000 	   50.0310
    0.1144 	   95.3885 	    1.0000 	   45.0000 	   50.6990
    0.1907 	   95.5528 	    1.0000 	   45.0000 	   51.3561
    0.1450 	   95.7173 	    1.0000 	   45.0000 	   52.0141
    0.2213 	   95.8815 	    1.0000 	   45.0000 	   52.6711
    0.2060 	   96.0490 	    1.0000 	   45.0000 	   53.3412
    0.0229 	   96.2225 	    1.0000 	   45.0000 	   54.0352
    0.1602 	   96.3970 	    1.0000 	   45.0000 	   54.7333
   -0.0534 	   96.5873 	    1.0000 	   45.0000 	   55.4943
    0.0381 	   96.7780 	    1.0000 	   45.0000 	   56.2573
   -0.0229 	   96.9463 	    1.0000 	   45.0000 	   56.9304
    0.1602 	   97.1160 	    1.0000 	   45.0000 	   57.6094
    0.1450 	   97.2823 	    1.0000 	   45.0000 	   58.2745
    0.2518 	   97.4588 	    1.0000 	   45.0000 	   58.9805
   -0.0534 	   97.6485 	    1.0000 	   45.0000 	   59.7395
    0.1144 	   97.8223 	    1.0000 	   46.0000 	    0.4336
    0.1450 	   97.9960 	    1.0000 	   46.0000 	    1.1286
    0.0839 	   98.1668 	    1.0000 	   46.0000 	    1.8117
    0.0076 	   98.3363 	    1.0000 	   46.0000 	    2.4897
   -0.1144 	   98.5098 	    1.0000 	   46.0000 	    3.1837
    0.0381 	   98.6785 	    1.0000 	   46.0000 	    3.8588
    0.0076 	   98.8500 	    1.0000 	   46.0000 	    4.5448
    0.0839 	   99.0220 	    1.0000 	   46.0000 	    5.2329
    0.0229 	   99.1880 	    1.0000 	   46.0000 	    5.8969
    0.0992 	   99.3593 	    1.0000 	   46.0000 	    6.5819
   -0.0839 	   99.5280 	    1.0000 	   46.0000 	    7.2570
    0.0839 	   99.6970 	    1.0000 	   46.0000 	    7.9330
    0.1144 	   99.8648 	    1.0000 	   46.0000 	    8.6041
   -0.1144 	  100.0335 	    1.0000 	   46.0000 	    9.2791
    0.0229 	  100.2033 	    1.0000 	   46.0000 	    9.9581
    0.1297 	  100.3730 	    1.0000 	   46.0000 	   10.6372
    0.0992 	  100.5430 	    1.0000 	   46.0000 	   11.3172
    0.1602 	  100.5885 	    1.0000 	   46.0000 	   11.4992