File: instron/10_grey_2W15L_drag20_spd15.txt
Thayer School of Engineering        Instron 4442 Mechanical Testing System
6/28/2018 2:04:42 AM

  Force (N)	Extension (mm)	Not Used	Not Used	Not Used	     Hour	    Minute	    Second
   -0.0076 	    0.2553 	    2.0000 	    5.0000 	    5.1691
    0.1602 	    0.3710 	    2.0000 	    5.0000 	    5.6321
    0.1450 	    0.4695 	    2.0000 	    5.0000 	    6.0261
    0.0992 	    0.5778 	    2.0000 	    5.0000 	    6.4591
    0.1144 	    0.6953 	    2.0000 	    5.0000 	    6.9292
    0.0076 	    0.7955 	    2.0000 	    5.0000 	    7.3302
   -0.0839 	    0.8698 	    2.0000 	    5.0000 	    7.6262
    0.1602 	    0.9503 	    2.0000 	    5.0000 	    7.9482
    0.1907 	    1.0230 	    2.0000 	    5.0000 	    8.2392
    0.0839 	    1.1023 	    2.0000 	    5.0000 	    8.5563
    0.1602 	    1.1848 	    2.0000 	    5.0000 	    8.8863
    0.1907 	    1.2595 	    2.0000 	    5.0000 	    9.1853
    0.0229 	    1.3300 	    2.0000 	    5.0000 	    9.4673
    0.1907 	    1.4013 	    2.0000 	    5.0000 	    9.7523
   -0.2060 	    1.4730 	    2.0000 	    5.0000 	   10.0393
    0.0229 	    1.5448 	    2.0000 	    5.0000 	   10.3264
    0.1297 	    1.6183 	    2.0000 	    5.0000 	   10.6204
    0.0839 	    1.6920 	    2.0000 	    5.0000 	   10.9154
    0.1602 	    1.7678 	    2.0000 	    5.0000 	   11.2184
    0.1755 	    1.8393 	    2.0000 	    5.0000 	   11.5044
    0.1144 	    1.9103 	    2.0000 	    5.0000 	   11.7884
    0.0076 	    1.9828 	    2.0000 	    5.0000 	   12.0785
    0.0534 	    2.0525 	    2.0000 	    5.0000 	   12.3575
    0.2213 	    2.1245 	    2.0000 	    5.0000 	   12.6455
   -0.0076 	    2.1965 	    2.0000 	    5.0000 	   12.9335
    0.3281 	    2.2695 	    2.0000 	    5.0000 	   13.2255
    0.2213 	    2.3405 	    2.0000 	    5.0000 	   13.5095
    0.2365 	    2.4130 	    2.0000 	    5.0000 	   13.7996
    0.0381 	    2.4865 	    2.0000 	    5.0000 	   14.0936
    0.1144 	    2.5593 	    2.0000 	    5.0000 	   14.3846
    0.0992 	    2.6343 	    2.0000 	    5.0000 	   14.6846
    0.0839 	    2.7083 	    2.0000 	    5.0000 	   14.9806
    0.1450 	    2.7815 	    2.0000 	    5.0000 	   15.2736
    0.1602 	    2.8563 	    2.0000 	    5.0000 	   15.5727
    0.0229 	    2.9303 	    2.0000 	    5.0000 	   15.8687
    0.1907 	    3.0045 	    2.0000 	    5.0000 	   16.1657
    0.2670 	    3.0805 	    2.0000 	    5.0000 	   16.4697
    0.0992 	    3.1560 	    2.0000 	    5.0000 	   16.7717
   -0.0839 	    3.2313 	    2.0000 	    5.0000 	   17.0727
    0.1907 	    3.3040 	    2.0000 	    5.0000 	   17.3638
    0.1144 	    3.3765 	    2.0000 	    5.0000 	   17.6538
    0.1602 	    3.4493 	    2.0000 	    5.0000 	   17.9448
    0.2060 	    3.5215 	    2.0000 	    5.0000 	   18.2338
    0.1907 	    3.5948 	    2.0000 	    5.0000 	   18.5268
    0.0687 	    3.6688 	    2.0000 	    5.0000 	   18.8228
    0.0687 	    3.7475 	    2.0000 	    5.0000 	   19.1379
    0.0992 	    3.8208 	    2.0000 	    5.0000 	   19.4309
    0.1602 	    3.8955 	    2.0000 	    5.0000 	   19.7299
    0.2670 	    3.9700 	    2.0000 	    5.0000 	   20.0279
    0.0381 	    4.0463 	    2.0000 	    5.0000 	   20.3329
   -0.1755 	    4.1203 	    2.0000 	    5.0000 	   20.6289
    0.0687 	    4.1938 	    2.0000 	    5.0000 	   20.9230
    0.0687 	    4.2708 	    2.0000 	    5.0000 	   21.2310
    0.1907 	    4.3428 	    2.0000 	    5.0000 	   21.5190
    0.1755 	    4.4163 	    2.0000 	    5.0000 	   21.8130
    0.0992 	    4.4913 	    2.0000 	    5.0000 	   22.1130
    0.1297 	    4.5673 	    2.0000 	    5.0000 	   22.4170
    0.2976 	    4.6440 	    2.0000 	    5.0000 	   22.7241
    0.1297 	    4.7225 	    2.0000 	    5.0000 	   23.0381
    0.3128 	    4.7985 	    2.0000 	    5.0000 	   23.3421
    0.0687 	    4.8768 	    2.0000 	    5.0000 	   23.6551
    0.0839 	    4.9540 	    2.0000 	    5.0000 	   23.9641
    0.1755 	    5.0265 	    2.0000 	    5.0000 	   24.2542
    0.1297 	    5.1030 	    2.0000 	    5.0000 	   24.5602
    0.1602 	    5.1803 	    2.0000 	    5.0000 	   24.8682
   -0.0687 	    5.2575 	    2.0000 	    5.0000 	   25.1772
    0.1907 	    5.3350 	    2.0000 	    5.0000 	   25.4872
    0.1907 	    5.4130 	    2.0000 	    5.0000 	   25.7992
    0.1602 	    5.4913 	    2.0000 	    5.0000 	   26.1123
    0.2213 	    5.5688 	    2.0000 	    5.0000 	   26.4223
    0.1297 	    5.6485 	    2.0000 	    5.0000 	   26.7413
    0.0687 	    5.7303 	    2.0000 	    5.0000 	   27.0683
    0.2365 	    5.8083 	    2.0000 	    5.0000 	   27.3803
    0.1602 	    5.8863 	    2.0000 	    5.0000 	   27.6923
    0.1450 	    5.9645 	    2.0000 	    5.0000 	   28.0054
    0.3128 	    6.0435 	    2.0000 	    5.0000 	   28.3214
    0.0992 	    6.1253 	    2.0000 	    5.0000 	   28.6484
    0.0992 	    6.2043 	    2.0000 	    5.0000 	   28.9644
    0.1755 	    6.2848 	    2.0000 	    5.0000 	   29.2864
   -0.0839 	    6.3610 	    2.0000 	    5.0000 	   29.5915
    0.1450 	    6.4418 	    2.0000 	    5.0000 	   29.9145
    0.2518 	    6.5230 	    2.0000 	    5.0000 	   30.2395
    0.1450 	    6.6038 	    2.0000 	    5.0000 	   30.5625
    0.2060 	    6.6850 	    2.0000 	    5.0000 	   30.8875
    0.2213 	    6.7685 	    2.0000 	    5.0000 	   31.2215
    0.0992 	    6.8518 	    2.0000 	    5.0000 	   31.5546
    0.1755 	    6.9315 	    2.0000 	    5.0000 	   31.8736
    0.1297 	    7.0125 	    2.0000 	    5.0000 	   32.1976
    0.2213 	    7.0935 	    2.0000 	    5.0000 	   32.5216
    0.1907 	    7.1740 	    2.0000 	    5.0000 	   32.8436
    0.0839 	    7.2578 	    2.0000 	    5.0000 	   33.1787
    0.3433 	    7.3380 	    2.0000 	    5.0000 	   33.4997
    0.1297 	    7.4208 	    2.0000 	    5.0000 	   33.8307
   -0.0992 	    7.4933 	    2.0000 	    5.0000 	   34.1207
    0.1450 	    7.5710 	    2.0000 	    5.0000 	   34.4317
    0.0229 	    7.6543 	    2.0000 	    5.0000 	   34.7648
    0.2823 	    7.7405 	    2.0000 	    5.0000 	   35.1098
    0.0229 	    7.8248 	    2.0000 	    5.0000 	   35.4468
    0.1297 	    7.9063 	    2.0000 	    5.0000 	   35.7728
    0.1297 	    7.9885 	    2.0000 	    5.0000 	   36.1018
    0.4501 	    8.0712 	    2.0000 	    5.0000 	   36.4328
    0.1450 	    8.1533 	    2.0000 	    5.0000 	   36.7609
    0.1602 	    8.2408 	    2.0000 	    5.0000 	   37.1109
    0.1450 	    8.3240 	    2.0000 	    5.0000 	   37.4439
    0.2976 	    8.4040 	    2.0000 	    5.0000 	   37.7639
    0.1907 	    8.4788 	    2.0000 	    5.0000 	   38.0629
    0.3586 	    8.5530 	    2.0000 	    5.0000 	   38.3600
    0.2823 	    8.6290 	    2.0000 	    5.0000 	   38.6640
    0.2518 	    8.7043 	    2.0000 	    5.0000 	   38.9650
   -0.0839 	    8.7888 	    2.0000 	    5.0000 	   39.3030
    0.2670 	    8.8745 	    2.0000 	    5.0000 	   39.6460
    0.2823 	    8.9580 	    2.0000 	    5.0000 	   39.9801
    0.2213 	    9.0433 	    2.0000 	    5.0000 	   40.3211
    0.2060 	    9.1283 	    2.0000 	    5.0000 	   40.6611
    0.3128 	    9.2140 	    2.0000 	    5.0000 	   41.0041
    0.4349 	    9.3000 	    2.0000 	    5.0000 	   41.3481
    0.0839 	    9.3855 	    2.0000 	    5.0000 	   41.6901
    0.0992 	    9.4700 	    2.0000 	    5.0000 	   42.0282
    0.2365 	    9.5463 	    2.0000 	    5.0000 	   42.3322
    0.1450 	    9.6228 	    2.0000 	    5.0000 	   42.6382
    0.1450 	    9.6993 	    2.0000 	    5.0000 	   42.9442
    0.2213 	    9.7850 	    2.0000 	    5.0000 	   43.2872
    0.1755 	    9.8665 	    2.0000 	    5.0000 	   43.6123
    0.4349 	    9.9540 	    2.0000 	    5.0000 	   43.9633
    0.4349 	   10.0435 	    2.0000 	    5.0000 	   44.3213
    0.2213 	   10.1310 	    2.0000 	    5.0000 	   44.6713
    0.4044 	   10.2103 	    2.0000 	    5.0000 	   44.9883
    0.3128 	   10.3000 	    2.0000 	    5.0000 	   45.3474
    0.3586 	   10.3865 	    2.0000 	    5.0000 	   45.6934
    0.3433 	   10.4665 	    2.0000 	    5.0000 	   46.0134
    0.3891 	   10.5530 	    2.0000 	    5.0000 	   46.3594
    0.4044 	   10.6415 	    2.0000 	    5.0000 	   46.7134
    0.3738 	   10.7255 	    2.0000 	    5.0000 	   47.0495
    0.4044 	   10.8068 	    2.0000 	    5.0000 	   47.3745
    0.4959 	   10.8885 	    2.0000 	    5.0000 	   47.7015
    0.6485 	   10.9745 	    2.0000 	    5.0000 	   48.0455
    0.5417 	   11.0555 	    2.0000 	    5.0000 	   48.3695
    0.5112 	   11.1390 	    2.0000 	    5.0000 	   48.7036
    0.6485 	   11.2265 	    2.0000 	    5.0000 	   49.0536
    0.6180 	   11.3063 	    2.0000 	    5.0000 	   49.3726
    0.7706 	   11.3825 	    2.0000 	    5.0000 	   49.6776
    0.5875 	   11.4605 	    2.0000 	    5.0000 	   49.9896
    0.6943 	   11.5388 	    2.0000 	    5.0000 	   50.3016
    0.8927 	   11.6148 	    2.0000 	    5.0000 	   50.6067
    0.7248 	   11.6923 	    2.0000 	    5.0000 	   50.9167
    0.8774 	   11.7733 	    2.0000 	    5.0000 	   51.2407
    0.8316 	   11.8580 	    2.0000 	    5.0000 	   51.5797
    0.7248 	   11.9443 	    2.0000 	    5.0000 	   51.9247
    0.7401 	   12.0320 	    2.0000 	    5.0000 	   52.2758
    0.8316 	   12.1178 	    2.0000 	    5.0000 	   52.6188
    0.8164 	   12.1935 	    2.0000 	    5.0000 	   52.9218
    0.8621 	   12.2865 	    2.0000 	    5.0000 	   53.2938
    0.9995 	   12.3638 	    2.0000 	    5.0000 	   53.6028
    0.9232 	   12.4500 	    2.0000 	    5.0000 	   53.9478
    0.8927 	   12.5358 	    2.0000 	    5.0000 	   54.2909
    0.7401 	   12.6120 	    2.0000 	    5.0000 	   54.5959
    1.0300 	   12.6995 	    2.0000 	    5.0000 	   54.9459
    1.0147 	   12.7898 	    2.0000 	    5.0000 	   55.3069
    1.0605 	   12.8770 	    2.0000 	    5.0000 	   55.6559
    0.9537 	   12.9630 	    2.0000 	    5.0000 	   56.0000
    1.2284 	   13.0520 	    2.0000 	    5.0000 	   56.3560
    1.2131 	   13.1375 	    2.0000 	    5.0000 	   56.6980
    1.2131 	   13.2243 	    2.0000 	    5.0000 	   57.0450
    1.0147 	   13.3123 	    2.0000 	    5.0000 	   57.3970
    1.0910 	   13.3993 	    2.0000 	    5.0000 	   57.7451
    1.2284 	   13.4848 	    2.0000 	    5.0000 	   58.0871
    1.1826 	   13.5728 	    2.0000 	    5.0000 	   58.4391
    1.2741 	   13.6585 	    2.0000 	    5.0000 	   58.7821
    1.2894 	   13.7435 	    2.0000 	    5.0000 	   59.1221
    1.2284 	   13.8260 	    2.0000 	    5.0000 	   59.4522
    1.3352 	   13.9130 	    2.0000 	    5.0000 	   59.8002
    1.4267 	   14.0008 	    2.0000 	    6.0000 	    0.1502
    1.3199 	   14.0875 	    2.0000 	    6.0000 	    0.4972
    1.4725 	   14.1705 	    2.0000 	    6.0000 	    0.8292
    1.3504 	   14.2505 	    2.0000 	    6.0000 	    1.1493
    1.4115 	   14.3305 	    2.0000 	    6.0000 	    1.4693
    1.4115 	   14.4120 	    2.0000 	    6.0000 	    1.7953
    1.3657 	   14.4938 	    2.0000 	    6.0000 	    2.1223
    1.3199 	   14.5770 	    2.0000 	    6.0000 	    2.4553
    1.3504 	   14.6640 	    2.0000 	    6.0000 	    2.8034
    1.4420 	   14.7518 	    2.0000 	    6.0000 	    3.1544
    1.2284 	   14.8385 	    2.0000 	    6.0000 	    3.5014
    1.4878 	   14.9253 	    2.0000 	    6.0000 	    3.8484
    1.1215 	   15.0138 	    2.0000 	    6.0000 	    4.2024
    1.3962 	   15.1003 	    2.0000 	    6.0000 	    4.5485
    1.4115 	   15.1878 	    2.0000 	    6.0000 	    4.8985
    1.5793 	   15.2750 	    2.0000 	    6.0000 	    5.2475
    1.4572 	   15.3628 	    2.0000 	    6.0000 	    5.5985
    1.4420 	   15.4505 	    2.0000 	    6.0000 	    5.9495
    1.4420 	   15.5393 	    2.0000 	    6.0000 	    6.3046
    1.4115 	   15.6275 	    2.0000 	    6.0000 	    6.6576
    1.5946 	   15.7153 	    2.0000 	    6.0000 	    7.0086
    1.6403 	   15.8030 	    2.0000 	    6.0000 	    7.3596
    1.5335 	   15.8895 	    2.0000 	    6.0000 	    7.7056
    1.6556 	   15.9753 	    2.0000 	    6.0000 	    8.0487
    1.6556 	   16.0640 	    2.0000 	    6.0000 	    8.4037
    1.7014 	   16.1525 	    2.0000 	    6.0000 	    8.7577
    1.5335 	   16.2432 	    2.0000 	    6.0000 	    9.1207
    1.6556 	   16.3323 	    2.0000 	    6.0000 	    9.4767
    1.7166 	   16.4208 	    2.0000 	    6.0000 	    9.8308
    1.6251 	   16.5100 	    2.0000 	    6.0000 	   10.1878
    1.7777 	   16.5998 	    2.0000 	    6.0000 	   10.5468
    1.6709 	   16.6895 	    2.0000 	    6.0000 	   10.9058
    1.9303 	   16.7825 	    2.0000 	    6.0000 	   11.2778
    1.7777 	   16.8710 	    2.0000 	    6.0000 	   11.6319
    1.8235 	   16.9588 	    2.0000 	    6.0000 	   11.9829
    1.7166 	   17.0487 	    2.0000 	    6.0000 	   12.3429
    1.8692 	   17.1375 	    2.0000 	    6.0000 	   12.6979
    1.8082 	   17.2257 	    2.0000 	    6.0000 	   13.0509
    1.9913 	   17.3140 	    2.0000 	    6.0000 	   13.4040
    1.8540 	   17.4035 	    2.0000 	    6.0000 	   13.7620
    1.8387 	   17.4928 	    2.0000 	    6.0000 	   14.1190
    1.8387 	   17.5808 	    2.0000 	    6.0000 	   14.4710
    1.9303 	   17.6710 	    2.0000 	    6.0000 	   14.8320
    1.7777 	   17.7633 	    2.0000 	    6.0000 	   15.2011
    1.9913 	   17.8533 	    2.0000 	    6.0000 	   15.5611
    1.9608 	   17.9438 	    2.0000 	    6.0000 	   15.9231
    1.7929 	   18.0355 	    2.0000 	    6.0000 	   16.2901
    1.8997 	   18.1255 	    2.0000 	    6.0000 	   16.6501
    1.9150 	   18.2150 	    2.0000 	    6.0000 	   17.0082
    1.8845 	   18.3045 	    2.0000 	    6.0000 	   17.3652
    2.0066 	   18.3943 	    2.0000 	    6.0000 	   17.7242
    1.6556 	   18.4838 	    2.0000 	    6.0000 	   18.0822
    2.0066 	   18.5740 	    2.0000 	    6.0000 	   18.4433
    2.0829 	   18.6548 	    2.0000 	    6.0000 	   18.7663
    2.0371 	   18.7353 	    2.0000 	    6.0000 	   19.0883
    1.9303 	   18.8163 	    2.0000 	    6.0000 	   19.4123
    2.0676 	   18.8968 	    2.0000 	    6.0000 	   19.7343
    2.2354 	   18.9780 	    2.0000 	    6.0000 	   20.0583
    2.1134 	   19.0623 	    2.0000 	    6.0000 	   20.3964
    1.9913 	   19.1445 	    2.0000 	    6.0000 	   20.7254
    1.9608 	   19.2260 	    2.0000 	    6.0000 	   21.0514
    2.3270 	   19.3103 	    2.0000 	    6.0000 	   21.3884
    2.2965 	   19.3925 	    2.0000 	    6.0000 	   21.7174
    2.2049 	   19.4733 	    2.0000 	    6.0000 	   22.0405
    2.1897 	   19.5545 	    2.0000 	    6.0000 	   22.3655
    2.1744 	   19.6360 	    2.0000 	    6.0000 	   22.6915
    2.2965 	   19.7165 	    2.0000 	    6.0000 	   23.0135
    2.1897 	   19.7980 	    2.0000 	    6.0000 	   23.3395
    2.1134 	   19.8785 	    2.0000 	    6.0000 	   23.6615
    2.2660 	   19.9590 	    2.0000 	    6.0000 	   23.9836
    2.2354 	   20.0410 	    2.0000 	    6.0000 	   24.3116
    2.3423 	   20.1223 	    2.0000 	    6.0000 	   24.6366
    2.1439 	   20.2040 	    2.0000 	    6.0000 	   24.9636
    2.4948 	   20.2860 	    2.0000 	    6.0000 	   25.2916
    2.2507 	   20.3673 	    2.0000 	    6.0000 	   25.6167
    2.0676 	   20.4605 	    2.0000 	    6.0000 	   25.9897
    2.2507 	   20.5515 	    2.0000 	    6.0000 	   26.3537
    2.2965 	   20.6355 	    2.0000 	    6.0000 	   26.6897
    2.2965 	   20.7173 	    2.0000 	    6.0000 	   27.0167
    2.3728 	   20.7993 	    2.0000 	    6.0000 	   27.3448
    2.3423 	   20.8810 	    2.0000 	    6.0000 	   27.6718
    2.4948 	   20.9640 	    2.0000 	    6.0000 	   28.0038
    2.3880 	   21.0460 	    2.0000 	    6.0000 	   28.3318
    2.4948 	   21.1273 	    2.0000 	    6.0000 	   28.6568
    2.4338 	   21.2105 	    2.0000 	    6.0000 	   28.9899
    2.4491 	   21.2988 	    2.0000 	    6.0000 	   29.3429
    2.5559 	   21.3848 	    2.0000 	    6.0000 	   29.6869
    2.4643 	   21.4695 	    2.0000 	    6.0000 	   30.0259
    2.4643 	   21.5628 	    2.0000 	    6.0000 	   30.3989
    2.1897 	   21.6560 	    2.0000 	    6.0000 	   30.7720
    2.5864 	   21.7485 	    2.0000 	    6.0000 	   31.1420
    2.6322 	   21.8390 	    2.0000 	    6.0000 	   31.5040
    2.5101 	   21.9218 	    2.0000 	    6.0000 	   31.8350
    2.6322 	   22.0038 	    2.0000 	    6.0000 	   32.1630
    2.6627 	   22.0898 	    2.0000 	    6.0000 	   32.5071
    2.7237 	   22.1720 	    2.0000 	    6.0000 	   32.8361
    2.5711 	   22.2563 	    2.0000 	    6.0000 	   33.1731
    2.7695 	   22.3470 	    2.0000 	    6.0000 	   33.5361
    2.5406 	   22.4353 	    2.0000 	    6.0000 	   33.8891
    2.6627 	   22.5203 	    2.0000 	    6.0000 	   34.2292
    2.6322 	   22.6040 	    2.0000 	    6.0000 	   34.5642
    2.6322 	   22.6885 	    2.0000 	    6.0000 	   34.9012
    2.6627 	   22.7740 	    2.0000 	    6.0000 	   35.2432
    2.7543 	   22.8600 	    2.0000 	    6.0000 	   35.5872
    2.8000 	   22.9438 	    2.0000 	    6.0000 	   35.9223
    2.7390 	   23.0283 	    2.0000 	    6.0000 	   36.2603
    2.8458 	   23.1123 	    2.0000 	    6.0000 	   36.5963
    2.4033 	   23.1973 	    2.0000 	    6.0000 	   36.9363
    2.8916 	   23.2815 	    2.0000 	    6.0000 	   37.2733
    2.8458 	   23.3655 	    2.0000 	    6.0000 	   37.6093
    3.0137 	   23.4500 	    2.0000 	    6.0000 	   37.9474
    2.8458 	   23.5375 	    2.0000 	    6.0000 	   38.2974
    2.8611 	   23.6330 	    2.0000 	    6.0000 	   38.6794
    2.9984 	   23.7275 	    2.0000 	    6.0000 	   39.0574
    3.0137 	   23.8235 	    2.0000 	    6.0000 	   39.4415
    2.8611 	   23.9190 	    2.0000 	    6.0000 	   39.8235
    2.8611 	   24.0148 	    2.0000 	    6.0000 	   40.2065
    2.8763 	   24.1120 	    2.0000 	    6.0000 	   40.5955
    2.8305 	   24.2000 	    2.0000 	    6.0000 	   40.9475
    2.9374 	   24.2970 	    2.0000 	    6.0000 	   41.3356
    2.9831 	   24.3915 	    2.0000 	    6.0000 	   41.7136
    3.0442 	   24.4863 	    2.0000 	    6.0000 	   42.0926
    2.8916 	   24.5815 	    2.0000 	    6.0000 	   42.4736
    3.0289 	   24.6765 	    2.0000 	    6.0000 	   42.8536
    2.9679 	   24.7715 	    2.0000 	    6.0000 	   43.2337
    3.1052 	   24.8673 	    2.0000 	    6.0000 	   43.6167
    2.9831 	   24.9625 	    2.0000 	    6.0000 	   43.9977
    3.1662 	   25.0593 	    2.0000 	    6.0000 	   44.3847
    2.9984 	   25.1560 	    2.0000 	    6.0000 	   44.7718
    3.2425 	   25.2550 	    2.0000 	    6.0000 	   45.1678
    3.2578 	   25.3513 	    2.0000 	    6.0000 	   45.5528
    2.8763 	   25.4453 	    2.0000 	    6.0000 	   45.9288
    3.2578 	   25.5433 	    2.0000 	    6.0000 	   46.3208
    3.1968 	   25.6393 	    2.0000 	    6.0000 	   46.7049
    3.2883 	   25.7355 	    2.0000 	    6.0000 	   47.0899
    3.1510 	   25.8323 	    2.0000 	    6.0000 	   47.4769
    3.3188 	   25.9293 	    2.0000 	    6.0000 	   47.8649
    3.0289 	   26.0270 	    2.0000 	    6.0000 	   48.2560
    3.3646 	   26.1233 	    2.0000 	    6.0000 	   48.6410
    3.3188 	   26.2225 	    2.0000 	    6.0000 	   49.0380
    3.5019 	   26.3218 	    2.0000 	    6.0000 	   49.4350
    3.3036 	   26.4190 	    2.0000 	    6.0000 	   49.8240
    3.5325 	   26.5160 	    2.0000 	    6.0000 	   50.2121
    3.4562 	   26.6145 	    2.0000 	    6.0000 	   50.6061
    3.3494 	   26.7118 	    2.0000 	    6.0000 	   50.9951
    3.3951 	   26.8100 	    2.0000 	    6.0000 	   51.3881
    3.4714 	   26.9068 	    2.0000 	    6.0000 	   51.7752
    3.2883 	   27.0035 	    2.0000 	    6.0000 	   52.1622
    3.5630 	   27.1018 	    2.0000 	    6.0000 	   52.5542
    3.4562 	   27.2008 	    2.0000 	    6.0000 	   52.9502
    3.5630 	   27.2998 	    2.0000 	    6.0000 	   53.3462
    3.5782 	   27.3980 	    2.0000 	    6.0000 	   53.7393
    3.6393 	   27.4958 	    2.0000 	    6.0000 	   54.1303
    3.3494 	   27.5945 	    2.0000 	    6.0000 	   54.5253
    3.5935 	   27.6925 	    2.0000 	    6.0000 	   54.9173
    3.6240 	   27.7910 	    2.0000 	    6.0000 	   55.3114
    3.5782 	   27.8885 	    2.0000 	    6.0000 	   55.7014
    3.6393 	   27.9875 	    2.0000 	    6.0000 	   56.0974
    3.8834 	   28.0863 	    2.0000 	    6.0000 	   56.4924
    3.6240 	   28.1815 	    2.0000 	    6.0000 	   56.8735
    3.6393 	   28.2798 	    2.0000 	    6.0000 	   57.2665
    3.7461 	   28.3765 	    2.0000 	    6.0000 	   57.6535
    3.8376 	   28.4740 	    2.0000 	    6.0000 	   58.0435
    3.7613 	   28.5733 	    2.0000 	    6.0000 	   58.4405
    3.7003 	   28.6718 	    2.0000 	    6.0000 	   58.8346
    3.8071 	   28.7648 	    2.0000 	    6.0000 	   59.2066
    3.7156 	   28.8573 	    2.0000 	    6.0000 	   59.5766
    3.8376 	   28.9560 	    2.0000 	    6.0000 	   59.9716
    3.6088 	   29.0523 	    2.0000 	    7.0000 	    0.3566
    4.0055 	   29.1515 	    2.0000 	    7.0000 	    0.7537
    3.9139 	   29.2503 	    2.0000 	    7.0000 	    1.1487
    3.8987 	   29.3485 	    2.0000 	    7.0000 	    1.5417
    3.9750 	   29.4468 	    2.0000 	    7.0000 	    1.9347
    4.1123 	   29.5460 	    2.0000 	    7.0000 	    2.3318
    4.0665 	   29.6448 	    2.0000 	    7.0000 	    2.7268
    4.0513 	   29.7443 	    2.0000 	    7.0000 	    3.1248
    3.8071 	   29.8395 	    2.0000 	    7.0000 	    3.5058
    3.8834 	   29.9363 	    2.0000 	    7.0000 	    3.8929
    4.0665 	   30.0350 	    2.0000 	    7.0000 	    4.2879
    3.5935 	   30.1353 	    2.0000 	    7.0000 	    4.6889
    3.8834 	   30.2343 	    2.0000 	    7.0000 	    5.0849
    3.9139 	   30.3328 	    2.0000 	    7.0000 	    5.4789
    3.9445 	   30.4320 	    2.0000 	    7.0000 	    5.8760
    3.8987 	   30.5323 	    2.0000 	    7.0000 	    6.2770
    3.9139 	   30.6315 	    2.0000 	    7.0000 	    6.6740
    3.9292 	   30.7270 	    2.0000 	    7.0000 	    7.0560
    3.9139 	   30.8245 	    2.0000 	    7.0000 	    7.4461
    3.8987 	   30.9235 	    2.0000 	    7.0000 	    7.8421
    3.9292 	   31.0235 	    2.0000 	    7.0000 	    8.2421
    4.0055 	   31.1233 	    2.0000 	    7.0000 	    8.6411
    3.9292 	   31.2223 	    2.0000 	    7.0000 	    9.0371
    3.9750 	   31.3180 	    2.0000 	    7.0000 	    9.4202
    4.0818 	   31.4108 	    2.0000 	    7.0000 	    9.7902
    3.9597 	   31.5115 	    2.0000 	    7.0000 	   10.1932
    3.8376 	   31.6108 	    2.0000 	    7.0000 	   10.5902
    3.8224 	   31.7100 	    2.0000 	    7.0000 	   10.9873
    3.8682 	   31.8138 	    2.0000 	    7.0000 	   11.4023
    3.8682 	   31.9148 	    2.0000 	    7.0000 	   11.8063
    3.8834 	   32.0073 	    2.0000 	    7.0000 	   12.1763
    3.6545 	   32.0985 	    2.0000 	    7.0000 	   12.5413
    3.8224 	   32.1888 	    2.0000 	    7.0000 	   12.9024
    3.7613 	   32.2838 	    2.0000 	    7.0000 	   13.2824
    3.8529 	   32.3735 	    2.0000 	    7.0000 	   13.6414
    3.7766 	   32.4635 	    2.0000 	    7.0000 	   14.0014
    3.5172 	   32.5592 	    2.0000 	    7.0000 	   14.3845
    3.9597 	   32.6495 	    2.0000 	    7.0000 	   14.7455
    3.8987 	   32.7450 	    2.0000 	    7.0000 	   15.1275
    3.7461 	   32.8408 	    2.0000 	    7.0000 	   15.5105
    3.8529 	   32.9318 	    2.0000 	    7.0000 	   15.8745
    3.8071 	   33.0235 	    2.0000 	    7.0000 	   16.2416
    3.8224 	   33.1145 	    2.0000 	    7.0000 	   16.6056
    3.7461 	   33.2052 	    2.0000 	    7.0000 	   16.9686
    3.5782 	   33.2978 	    2.0000 	    7.0000 	   17.3386
    3.7919 	   33.3888 	    2.0000 	    7.0000 	   17.7026
    3.6698 	   33.4803 	    2.0000 	    7.0000 	   18.0687
    3.7919 	   33.5720 	    2.0000 	    7.0000 	   18.4357
    3.9445 	   33.6635 	    2.0000 	    7.0000 	   18.8017
    3.8224 	   33.7548 	    2.0000 	    7.0000 	   19.1667
    3.7308 	   33.8495 	    2.0000 	    7.0000 	   19.5457
    3.8071 	   33.9415 	    2.0000 	    7.0000 	   19.9138
    3.7156 	   34.0348 	    2.0000 	    7.0000 	   20.2868
    3.8071 	   34.1265 	    2.0000 	    7.0000 	   20.6538
    3.7003 	   34.2180 	    2.0000 	    7.0000 	   21.0198
    3.8376 	   34.3100 	    2.0000 	    7.0000 	   21.3879
    3.7613 	   34.4018 	    2.0000 	    7.0000 	   21.7549
    3.7919 	   34.4948 	    2.0000 	    7.0000 	   22.1269
    3.7461 	   34.5888 	    2.0000 	    7.0000 	   22.5029
    3.8682 	   34.6813 	    2.0000 	    7.0000 	   22.8729
    3.8834 	   34.7778 	    2.0000 	    7.0000 	   23.2590
    3.8224 	   34.8785 	    2.0000 	    7.0000 	   23.6620
    3.7919 	   34.9795 	    2.0000 	    7.0000 	   24.0660
    3.6240 	   35.0835 	    2.0000 	    7.0000 	   24.4820
    3.8224 	   35.1865 	    2.0000 	    7.0000 	   24.8941
    3.7461 	   35.2885 	    2.0000 	    7.0000 	   25.3021
    3.6088 	   35.3855 	    2.0000 	    7.0000 	   25.6901
    3.8071 	   35.4863 	    2.0000 	    7.0000 	   26.0931
    3.7613 	   35.5888 	    2.0000 	    7.0000 	   26.5031
    3.5477 	   35.6928 	    2.0000 	    7.0000 	   26.9192
    3.8071 	   35.7923 	    2.0000 	    7.0000 	   27.3162
    3.7613 	   35.8968 	    2.0000 	    7.0000 	   27.7342
    3.8071 	   35.9988 	    2.0000 	    7.0000 	   28.1422
    3.8224 	   36.0955 	    2.0000 	    7.0000 	   28.5293
    3.7919 	   36.1963 	    2.0000 	    7.0000 	   28.9323
    3.7461 	   36.3033 	    2.0000 	    7.0000 	   29.3603
    3.6545 	   36.4075 	    2.0000 	    7.0000 	   29.7773
    3.7003 	   36.5060 	    2.0000 	    7.0000 	   30.1714
    3.7766 	   36.6013 	    2.0000 	    7.0000 	   30.5524
    3.6851 	   36.6953 	    2.0000 	    7.0000 	   30.9284
    3.7156 	   36.7893 	    2.0000 	    7.0000 	   31.3044
    3.4562 	   36.8835 	    2.0000 	    7.0000 	   31.6814
    3.7156 	   36.9778 	    2.0000 	    7.0000 	   32.0585
    3.6851 	   37.0758 	    2.0000 	    7.0000 	   32.4505
    3.8071 	   37.1715 	    2.0000 	    7.0000 	   32.8335
    3.7461 	   37.2655 	    2.0000 	    7.0000 	   33.2095
    3.8682 	   37.3595 	    2.0000 	    7.0000 	   33.5855
    3.6545 	   37.4543 	    2.0000 	    7.0000 	   33.9646
    3.6240 	   37.5503 	    2.0000 	    7.0000 	   34.3486
    3.5325 	   37.6458 	    2.0000 	    7.0000 	   34.7306
    4.0665 	   37.7438 	    2.0000 	    7.0000 	   35.1226
    3.8376 	   37.8393 	    2.0000 	    7.0000 	   35.5047
    3.7461 	   37.9340 	    2.0000 	    7.0000 	   35.8837
    3.7308 	   38.0293 	    2.0000 	    7.0000 	   36.2647
    3.8376 	   38.1250 	    2.0000 	    7.0000 	   36.6477
    3.7613 	   38.2225 	    2.0000 	    7.0000 	   37.0377
    3.7003 	   38.3188 	    2.0000 	    7.0000 	   37.4228
    3.5172 	   38.4145 	    2.0000 	    7.0000 	   37.8058
    3.8071 	   38.5100 	    2.0000 	    7.0000 	   38.1878
    3.6545 	   38.6060 	    2.0000 	    7.0000 	   38.5718
    3.8376 	   38.7020 	    2.0000 	    7.0000 	   38.9559
    3.6851 	   38.7978 	    2.0000 	    7.0000 	   39.3389
    3.5935 	   38.8963 	    2.0000 	    7.0000 	   39.7329
    3.6545 	   38.9928 	    2.0000 	    7.0000 	   40.1189
    3.7308 	   39.0900 	    2.0000 	    7.0000 	   40.5079
    3.7156 	   39.1873 	    2.0000 	    7.0000 	   40.8970
    3.7308 	   39.2882 	    2.0000 	    7.0000 	   41.3010
    3.8376 	   39.3845 	    2.0000 	    7.0000 	   41.6860
    3.3799 	   39.4823 	    2.0000 	    7.0000 	   42.0770
    3.8071 	   39.5785 	    2.0000 	    7.0000 	   42.4621
    3.5630 	   39.6755 	    2.0000 	    7.0000 	   42.8501
    3.6698 	   39.7720 	    2.0000 	    7.0000 	   43.2361
    3.6851 	   39.8693 	    2.0000 	    7.0000 	   43.6251
    3.6698 	   39.9665 	    2.0000 	    7.0000 	   44.0141
    3.7613 	   40.0650 	    2.0000 	    7.0000 	   44.4082
    3.7919 	   40.1628 	    2.0000 	    7.0000 	   44.7982
    3.7919 	   40.2595 	    2.0000 	    7.0000 	   45.1852
    3.7766 	   40.3563 	    2.0000 	    7.0000 	   45.5722
    3.7308 	   40.4548 	    2.0000 	    7.0000 	   45.9663
    3.5630 	   40.5538 	    2.0000 	    7.0000 	   46.3623
    3.6240 	   40.6630 	    2.0000 	    7.0000 	   46.7993
    3.9292 	   40.7673 	    2.0000 	    7.0000 	   47.2163
    3.6240 	   40.8695 	    2.0000 	    7.0000 	   47.6254
    3.7308 	   40.9720 	    2.0000 	    7.0000 	   48.0354
    3.5477 	   41.0790 	    2.0000 	    7.0000 	   48.4634
    3.7919 	   41.1883 	    2.0000 	    7.0000 	   48.9004
    3.6240 	   41.2895 	    2.0000 	    7.0000 	   49.3055
    3.6851 	   41.3978 	    2.0000 	    7.0000 	   49.7385
    3.6698 	   41.5020 	    2.0000 	    7.0000 	   50.1555
    3.7613 	   41.6085 	    2.0000 	    7.0000 	   50.5815
    3.8224 	   41.7085 	    2.0000 	    7.0000 	   50.9815
    3.6240 	   41.8188 	    2.0000 	    7.0000 	   51.4226
    3.6698 	   41.9218 	    2.0000 	    7.0000 	   51.8346
    3.7461 	   42.0243 	    2.0000 	    7.0000 	   52.2446
    3.5782 	   42.1318 	    2.0000 	    7.0000 	   52.6746
    3.5782 	   42.2408 	    2.0000 	    7.0000 	   53.1107
    3.4104 	   42.3493 	    2.0000 	    7.0000 	   53.5447
    3.6698 	   42.4573 	    2.0000 	    7.0000 	   53.9767
    3.3341 	   42.5663 	    2.0000 	    7.0000 	   54.4127
    3.6240 	   42.6750 	    2.0000 	    7.0000 	   54.8478
    3.6545 	   42.7828 	    2.0000 	    7.0000 	   55.2788
    3.6698 	   42.8908 	    2.0000 	    7.0000 	   55.7108
    3.7003 	   42.9993 	    2.0000 	    7.0000 	   56.1448
    3.7613 	   43.1053 	    2.0000 	    7.0000 	   56.5689
    3.7003 	   43.2105 	    2.0000 	    7.0000 	   56.9899
    3.5172 	   43.3155 	    2.0000 	    7.0000 	   57.4099
    3.7919 	   43.4225 	    2.0000 	    7.0000 	   57.8379
    3.5782 	   43.5318 	    2.0000 	    7.0000 	   58.2750
    3.8071 	   43.6393 	    2.0000 	    7.0000 	   58.7050
    3.7003 	   43.7493 	    2.0000 	    7.0000 	   59.1450
    3.5630 	   43.8513 	    2.0000 	    7.0000 	   59.5530
    3.7766 	   43.9570 	    2.0000 	    7.0000 	   59.9761
    3.5935 	   44.0675 	    2.0000 	    8.0000 	    0.4181
    3.6851 	   44.1743 	    2.0000 	    8.0000 	    0.8451
    3.6545 	   44.2840 	    2.0000 	    8.0000 	    1.2841
    3.6545 	   44.3958 	    2.0000 	    8.0000 	    1.7312
    3.8529 	   44.5010 	    2.0000 	    8.0000 	    2.1522
    3.6088 	   44.6110 	    2.0000 	    8.0000 	    2.5912
    3.5935 	   44.7143 	    2.0000 	    8.0000 	    3.0042
    3.5935 	   44.8238 	    2.0000 	    8.0000 	    3.4423
    3.7156 	   44.9345 	    2.0000 	    8.0000 	    3.8853
    3.6545 	   45.0413 	    2.0000 	    8.0000 	    4.3123
    3.5935 	   45.1498 	    2.0000 	    8.0000 	    4.7463
    3.7003 	   45.2605 	    2.0000 	    8.0000 	    5.1894
    3.6698 	   45.3725 	    2.0000 	    8.0000 	    5.6374
    3.6088 	   45.4843 	    2.0000 	    8.0000 	    6.0844
    3.5782 	   45.5940 	    2.0000 	    8.0000 	    6.5234
    3.6698 	   45.7060 	    2.0000 	    8.0000 	    6.9715
    3.6698 	   45.8175 	    2.0000 	    8.0000 	    7.4175
    3.7003 	   45.9295 	    2.0000 	    8.0000 	    7.8655
    3.5172 	   46.0353 	    2.0000 	    8.0000 	    8.2885
    3.4257 	   46.1445 	    2.0000 	    8.0000 	    8.7256
    3.5630 	   46.2588 	    2.0000 	    8.0000 	    9.1826
    3.5172 	   46.3648 	    2.0000 	    8.0000 	    9.6066
    3.8224 	   46.4783 	    2.0000 	    8.0000 	   10.0606
    3.5325 	   46.5893 	    2.0000 	    8.0000 	   10.5047
    3.4867 	   46.7025 	    2.0000 	    8.0000 	   10.9577
    3.5782 	   46.8138 	    2.0000 	    8.0000 	   11.4027
    3.7003 	   46.9255 	    2.0000 	    8.0000 	   11.8497
    3.6240 	   47.0368 	    2.0000 	    8.0000 	   12.2948
    3.6088 	   47.1505 	    2.0000 	    8.0000 	   12.7498
    3.5630 	   47.2615 	    2.0000 	    8.0000 	   13.1938
    3.6088 	   47.3720 	    2.0000 	    8.0000 	   13.6358
    3.5325 	   47.4820 	    2.0000 	    8.0000 	   14.0759
    3.5019 	   47.5948 	    2.0000 	    8.0000 	   14.5269
    3.5019 	   47.7048 	    2.0000 	    8.0000 	   14.9669
    3.1968 	   47.8163 	    2.0000 	    8.0000 	   15.4129
    3.1968 	   47.9253 	    2.0000 	    8.0000 	   15.8490
    3.3036 	   48.0318 	    2.0000 	    8.0000 	   16.2750
    3.1815 	   48.1345 	    2.0000 	    8.0000 	   16.6860
    3.2425 	   48.2383 	    2.0000 	    8.0000 	   17.1010
    3.1815 	   48.3423 	    2.0000 	    8.0000 	   17.5171
    3.2578 	   48.4455 	    2.0000 	    8.0000 	   17.9301
    2.9984 	   48.5490 	    2.0000 	    8.0000 	   18.3441
    2.9831 	   48.6533 	    2.0000 	    8.0000 	   18.7611
    3.0137 	   48.7573 	    2.0000 	    8.0000 	   19.1772
    2.9221 	   48.8615 	    2.0000 	    8.0000 	   19.5942
    3.0137 	   48.9663 	    2.0000 	    8.0000 	   20.0122
    2.7848 	   49.0733 	    2.0000 	    8.0000 	   20.4402
    2.8000 	   49.1770 	    2.0000 	    8.0000 	   20.8553
    2.8153 	   49.2830 	    2.0000 	    8.0000 	   21.2793
    2.7543 	   49.3878 	    2.0000 	    8.0000 	   21.6983
    2.7237 	   49.4943 	    2.0000 	    8.0000 	   22.1243
    2.7848 	   49.5990 	    2.0000 	    8.0000 	   22.5434
    2.6017 	   49.7043 	    2.0000 	    8.0000 	   22.9644
    2.6322 	   49.8095 	    2.0000 	    8.0000 	   23.3854
    2.4948 	   49.9150 	    2.0000 	    8.0000 	   23.8074
    2.6322 	   50.0195 	    2.0000 	    8.0000 	   24.2254
    2.6322 	   50.1255 	    2.0000 	    8.0000 	   24.6495
    2.5864 	   50.2338 	    2.0000 	    8.0000 	   25.0825
    2.4033 	   50.3418 	    2.0000 	    8.0000 	   25.5145
    2.5101 	   50.4493 	    2.0000 	    8.0000 	   25.9445
    2.2812 	   50.5553 	    2.0000 	    8.0000 	   26.3686
    2.3728 	   50.6620 	    2.0000 	    8.0000 	   26.7956
    2.3880 	   50.7703 	    2.0000 	    8.0000 	   27.2286
    2.3728 	   50.8760 	    2.0000 	    8.0000 	   27.6516
    2.2965 	   50.9833 	    2.0000 	    8.0000 	   28.0807
    2.2049 	   51.0898 	    2.0000 	    8.0000 	   28.5067
    2.3117 	   51.1960 	    2.0000 	    8.0000 	   28.9317
    2.3423 	   51.3053 	    2.0000 	    8.0000 	   29.3687
    2.2202 	   51.4115 	    2.0000 	    8.0000 	   29.7938
    2.3728 	   51.5188 	    2.0000 	    8.0000 	   30.2228
    2.2660 	   51.6253 	    2.0000 	    8.0000 	   30.6488
    2.1592 	   51.7313 	    2.0000 	    8.0000 	   31.0728
    2.1744 	   51.8398 	    2.0000 	    8.0000 	   31.5069
    2.2507 	   51.9468 	    2.0000 	    8.0000 	   31.9349
    2.0676 	   52.0555 	    2.0000 	    8.0000 	   32.3699
    2.2812 	   52.1633 	    2.0000 	    8.0000 	   32.8009
    2.3117 	   52.2705 	    2.0000 	    8.0000 	   33.2300
    1.8540 	   52.3773 	    2.0000 	    8.0000 	   33.6570
    2.0218 	   52.4843 	    2.0000 	    8.0000 	   34.0850
    2.1439 	   52.5918 	    2.0000 	    8.0000 	   34.5150
    2.0218 	   52.6993 	    2.0000 	    8.0000 	   34.9451
    1.9913 	   52.8068 	    2.0000 	    8.0000 	   35.3751
    1.9303 	   52.9153 	    2.0000 	    8.0000 	   35.8091
    1.8540 	   53.0250 	    2.0000 	    8.0000 	   36.2481
    2.0981 	   53.1333 	    2.0000 	    8.0000 	   36.6812
    1.8845 	   53.2405 	    2.0000 	    8.0000 	   37.1102
    2.0218 	   53.3483 	    2.0000 	    8.0000 	   37.5402
    1.9455 	   53.4573 	    2.0000 	    8.0000 	   37.9762
    1.8540 	   53.5650 	    2.0000 	    8.0000 	   38.4073
    1.7929 	   53.6735 	    2.0000 	    8.0000 	   38.8413
    1.8692 	   53.7825 	    2.0000 	    8.0000 	   39.2773
    1.8692 	   53.8913 	    2.0000 	    8.0000 	   39.7123
    1.9913 	   53.9995 	    2.0000 	    8.0000 	   40.1454
    1.5488 	   54.1093 	    2.0000 	    8.0000 	   40.5844
    1.5488 	   54.2173 	    2.0000 	    8.0000 	   41.0164
    1.8235 	   54.3255 	    2.0000 	    8.0000 	   41.4494
    1.8235 	   54.4343 	    2.0000 	    8.0000 	   41.8845
    1.7929 	   54.5433 	    2.0000 	    8.0000 	   42.3205
    1.8235 	   54.6515 	    2.0000 	    8.0000 	   42.7535
    1.7014 	   54.7610 	    2.0000 	    8.0000 	   43.1915
    1.6098 	   54.8760 	    2.0000 	    8.0000 	   43.6516
    1.5946 	   54.9930 	    2.0000 	    8.0000 	   44.1196
    1.6403 	   55.1078 	    2.0000 	    8.0000 	   44.5786
    1.7014 	   55.2228 	    2.0000 	    8.0000 	   45.0386
    1.6403 	   55.3410 	    2.0000 	    8.0000 	   45.5117
    1.5793 	   55.4528 	    2.0000 	    8.0000 	   45.9587
    1.4878 	   55.5680 	    2.0000 	    8.0000 	   46.4197
    1.5488 	   55.6845 	    2.0000 	    8.0000 	   46.8857
    1.4725 	   55.8043 	    2.0000 	    8.0000 	   47.3648
    1.4115 	   55.9223 	    2.0000 	    8.0000 	   47.8368
    1.4267 	   56.0350 	    2.0000 	    8.0000 	   48.2878
    1.4420 	   56.1520 	    2.0000 	    8.0000 	   48.7558
    1.0910 	   56.2718 	    2.0000 	    8.0000 	   49.2349
    1.3504 	   56.3883 	    2.0000 	    8.0000 	   49.7009
    1.4725 	   56.5093 	    2.0000 	    8.0000 	   50.1849
    1.4725 	   56.6275 	    2.0000 	    8.0000 	   50.6580
    1.3352 	   56.7500 	    2.0000 	    8.0000 	   51.1480
    1.5488 	   56.8685 	    2.0000 	    8.0000 	   51.6220
    1.4878 	   56.9845 	    2.0000 	    8.0000 	   52.0860
    1.3199 	   57.1010 	    2.0000 	    8.0000 	   52.5521
    1.0910 	   57.2175 	    2.0000 	    8.0000 	   53.0181
    1.3962 	   57.3385 	    2.0000 	    8.0000 	   53.5021
    1.3504 	   57.4608 	    2.0000 	    8.0000 	   53.9911
    1.3657 	   57.5800 	    2.0000 	    8.0000 	   54.4682
    1.1521 	   57.6995 	    2.0000 	    8.0000 	   54.9452
    1.2284 	   57.8213 	    2.0000 	    8.0000 	   55.4322
    1.0452 	   57.9445 	    2.0000 	    8.0000 	   55.9253
    1.3504 	   58.0605 	    2.0000 	    8.0000 	   56.3893
    1.1368 	   58.1808 	    2.0000 	    8.0000 	   56.8703
    1.0758 	   58.3043 	    2.0000 	    8.0000 	   57.3643
    1.0605 	   58.4273 	    2.0000 	    8.0000 	   57.8564
    0.9842 	   58.5510 	    2.0000 	    8.0000 	   58.3514
    1.0910 	   58.6668 	    2.0000 	    8.0000 	   58.8144
    1.1063 	   58.7795 	    2.0000 	    8.0000 	   59.2654
    0.9995 	   58.8955 	    2.0000 	    8.0000 	   59.7295
    1.0758 	   59.0153 	    2.0000 	    9.0000 	    0.2085
    0.9842 	   59.1355 	    2.0000 	    9.0000 	    0.6895
    1.0300 	   59.2570 	    2.0000 	    9.0000 	    1.1756
    1.0147 	   59.3790 	    2.0000 	    9.0000 	    1.6636
    0.8927 	   59.5030 	    2.0000 	    9.0000 	    2.1596
    0.9232 	   59.6218 	    2.0000 	    9.0000 	    2.6346
    0.7401 	   59.7443 	    2.0000 	    9.0000 	    3.1247
    0.8774 	   59.8618 	    2.0000 	    9.0000 	    3.5947
    0.9232 	   59.9810 	    2.0000 	    9.0000 	    4.0717
    0.7858 	   60.1033 	    2.0000 	    9.0000 	    4.5608
    0.9079 	   60.2250 	    2.0000 	    9.0000 	    5.0478
    0.9689 	   60.3483 	    2.0000 	    9.0000 	    5.5408
    0.8316 	   60.4710 	    2.0000 	    9.0000 	    6.0318
    0.7095 	   60.5920 	    2.0000 	    9.0000 	    6.5159
    0.7095 	   60.7163 	    2.0000 	    9.0000 	    7.0129
    0.4654 	   60.8363 	    2.0000 	    9.0000 	    7.4929
    0.7401 	   60.9600 	    2.0000 	    9.0000 	    7.9879
    0.6485 	   61.0808 	    2.0000 	    9.0000 	    8.4710
    0.6485 	   61.2013 	    2.0000 	    9.0000 	    8.9530
    0.6943 	   61.3178 	    2.0000 	    9.0000 	    9.4190
    0.6332 	   61.4335 	    2.0000 	    9.0000 	    9.8821
    0.6638 	   61.5530 	    2.0000 	    9.0000 	   10.3601
    0.5875 	   61.6743 	    2.0000 	    9.0000 	   10.8451
    0.3738 	   61.7960 	    2.0000 	    9.0000 	   11.3321
    0.6638 	   61.9155 	    2.0000 	    9.0000 	   11.8102
    0.6027 	   62.0390 	    2.0000 	    9.0000 	   12.3032
    0.4654 	   62.1625 	    2.0000 	    9.0000 	   12.7972
    0.4501 	   62.2838 	    2.0000 	    9.0000 	   13.2823
    0.4349 	   62.4038 	    2.0000 	    9.0000 	   13.7623
    0.5264 	   62.5233 	    2.0000 	    9.0000 	   14.2403
    0.5112 	   62.6493 	    2.0000 	    9.0000 	   14.7443
    0.3738 	   62.7773 	    2.0000 	    9.0000 	   15.2564
    0.3128 	   62.9030 	    2.0000 	    9.0000 	   15.7594
    0.3891 	   63.0280 	    2.0000 	    9.0000 	   16.2594
    0.3891 	   63.1493 	    2.0000 	    9.0000 	   16.7444
    0.2213 	   63.2688 	    2.0000 	    9.0000 	   17.2225
    0.3738 	   63.3893 	    2.0000 	    9.0000 	   17.7045
    0.3433 	   63.5058 	    2.0000 	    9.0000 	   18.1705
    0.4807 	   63.6215 	    2.0000 	    9.0000 	   18.6336
    0.3128 	   63.7385 	    2.0000 	    9.0000 	   19.1016
    0.2518 	   63.8605 	    2.0000 	    9.0000 	   19.5896
    0.1144 	   63.9803 	    2.0000 	    9.0000 	   20.0686
    0.0687 	   64.0973 	    2.0000 	    9.0000 	   20.5367
    0.2670 	   64.2140 	    2.0000 	    9.0000 	   21.0037
    0.1907 	   64.3300 	    2.0000 	    9.0000 	   21.4677
    0.1297 	   64.4492 	    2.0000 	    9.0000 	   21.9447
    0.2060 	   64.5650 	    2.0000 	    9.0000 	   22.4078
    0.3281 	   64.6823 	    2.0000 	    9.0000 	   22.8768
    0.3128 	   64.7998 	    2.0000 	    9.0000 	   23.3468
    0.1297 	   64.9158 	    2.0000 	    9.0000 	   23.8109
    0.0687 	   65.0315 	    2.0000 	    9.0000 	   24.2739
    0.2213 	   65.1490 	    2.0000 	    9.0000 	   24.7439
    0.0381 	   65.2658 	    2.0000 	    9.0000 	   25.2109
    0.1602 	   65.3820 	    2.0000 	    9.0000 	   25.6760
    0.2060 	   65.5000 	    2.0000 	    9.0000 	   26.1480
    0.1602 	   65.6178 	    2.0000 	    9.0000 	   26.6190
    0.0534 	   65.7363 	    2.0000 	    9.0000 	   27.0930
    0.1602 	   65.8530 	    2.0000 	    9.0000 	   27.5601
    0.1602 	   65.9715 	    2.0000 	    9.0000 	   28.0341
    0.2365 	   66.0908 	    2.0000 	    9.0000 	   28.5111
    0.2213 	   66.2073 	    2.0000 	    9.0000 	   28.9771
    0.1450 	   66.3278 	    2.0000 	    9.0000 	   29.4592
    0.2670 	   66.4448 	    2.0000 	    9.0000 	   29.9262
    0.2213 	   66.5673 	    2.0000 	    9.0000 	   30.4162
    0.2213 	   66.6848 	    2.0000 	    9.0000 	   30.8863
    0.3433 	   66.8020 	    2.0000 	    9.0000 	   31.3553
    0.2670 	   66.9205 	    2.0000 	    9.0000 	   31.8293
    0.0992 	   67.0393 	    2.0000 	    9.0000 	   32.3043
    0.1297 	   67.1575 	    2.0000 	    9.0000 	   32.7774
    0.3891 	   67.2773 	    2.0000 	    9.0000 	   33.2564
    0.0381 	   67.3953 	    2.0000 	    9.0000 	   33.7284
    0.1297 	   67.5235 	    2.0000 	    9.0000 	   34.2415
    0.2365 	   67.6423 	    2.0000 	    9.0000 	   34.7165
    0.1450 	   67.7623 	    2.0000 	    9.0000 	   35.1965
    0.2060 	   67.8803 	    2.0000 	    9.0000 	   35.6685
    0.1144 	   67.9998 	    2.0000 	    9.0000 	   36.1466
    0.0381 	   68.1195 	    2.0000 	    9.0000 	   36.6256
    0.2670 	   68.2383 	    2.0000 	    9.0000 	   37.1006
    0.0687 	   68.3590 	    2.0000 	    9.0000 	   37.5836
    0.1297 	   68.4813 	    2.0000 	    9.0000 	   38.0727
   -0.1602 	   68.6000 	    2.0000 	    9.0000 	   38.5477
    0.2213 	   68.7228 	    2.0000 	    9.0000 	   39.0387
   -0.0381 	   68.8430 	    2.0000 	    9.0000 	   39.5198
    0.0687 	   68.9622 	    2.0000 	    9.0000 	   39.9968
   -0.0076 	   69.0820 	    2.0000 	    9.0000 	   40.4758
    0.1144 	   69.2015 	    2.0000 	    9.0000 	   40.9538
    0.0229 	   69.3218 	    2.0000 	    9.0000 	   41.4349
    0.0381 	   69.4458 	    2.0000 	    9.0000 	   41.9309
    0.0992 	   69.5678 	    2.0000 	    9.0000 	   42.4189
    0.0839 	   69.6910 	    2.0000 	    9.0000 	   42.9119
    0.1602 	   69.8110 	    2.0000 	    9.0000 	   43.3910
    0.1297 	   69.9320 	    2.0000 	    9.0000 	   43.8760
    0.1144 	   70.0523 	    2.0000 	    9.0000 	   44.3570
    0.0687 	   70.1720 	    2.0000 	    9.0000 	   44.8361
    0.3128 	   70.2915 	    2.0000 	    9.0000 	   45.3141
    0.1297 	   70.4115 	    2.0000 	    9.0000 	   45.7941
    0.0229 	   70.5338 	    2.0000 	    9.0000 	   46.2831
   -0.0687 	   70.6543 	    2.0000 	    9.0000 	   46.7652
    0.0839 	   70.7765 	    2.0000 	    9.0000 	   47.2532
    0.1297 	   70.8975 	    2.0000 	    9.0000 	   47.7372
    0.1297 	   71.0185 	    2.0000 	    9.0000 	   48.2212
    0.0992 	   71.1385 	    2.0000 	    9.0000 	   48.7013
    0.0687 	   71.2613 	    2.0000 	    9.0000 	   49.1923
    0.1602 	   71.3820 	    2.0000 	    9.0000 	   49.6753
    0.1602 	   71.5030 	    2.0000 	    9.0000 	   50.1594
    0.1755 	   71.6243 	    2.0000 	    9.0000 	   50.6444
   -0.1297 	   71.7498 	    2.0000 	    9.0000 	   51.1464
    0.1907 	   71.8715 	    2.0000 	    9.0000 	   51.6334
    0.1450 	   71.9930 	    2.0000 	    9.0000 	   52.1195
    0.0534 	   72.1155 	    2.0000 	    9.0000 	   52.6095
    0.0076 	   72.2373 	    2.0000 	    9.0000 	   53.0965
    0.2823 	   72.3595 	    2.0000 	    9.0000 	   53.5856
    0.1450 	   72.4820 	    2.0000 	    9.0000 	   54.0756
    0.1450 	   72.6043 	    2.0000 	    9.0000 	   54.5646
    0.0992 	   72.7260 	    2.0000 	    9.0000 	   55.0516
    0.0992 	   72.8485 	    2.0000 	    9.0000 	   55.5417
    0.1144 	   72.9708 	    2.0000 	    9.0000 	   56.0307
    0.1297 	   73.0930 	    2.0000 	    9.0000 	   56.5197
    0.1907 	   73.2153 	    2.0000 	    9.0000 	   57.0088
   -0.1297 	   73.3383 	    2.0000 	    9.0000 	   57.5008
    0.0076 	   73.4603 	    2.0000 	    9.0000 	   57.9888
    0.0839 	   73.5833 	    2.0000 	    9.0000 	   58.4808
    0.1450 	   73.7070 	    2.0000 	    9.0000 	   58.9759
    0.1450 	   73.8343 	    2.0000 	    9.0000 	   59.4849
    0.1602 	   73.9578 	    2.0000 	    9.0000 	   59.9789
    0.0687 	   74.0813 	    2.0000 	   10.0000 	    0.4730
    0.0992 	   74.2043 	    2.0000 	   10.0000 	    0.9650
   -0.0534 	   74.3270 	    2.0000 	   10.0000 	    1.4560
    0.1450 	   74.4500 	    2.0000 	   10.0000 	    1.9480
    0.2060 	   74.5728 	    2.0000 	   10.0000 	    2.4391
    0.2213 	   74.6963 	    2.0000 	   10.0000 	    2.9331
    0.0687 	   74.8190 	    2.0000 	   10.0000 	    3.4241
    0.0992 	   74.9445 	    2.0000 	   10.0000 	    3.9261
   -0.0687 	   75.0683 	    2.0000 	   10.0000 	    4.4212
   -0.0687 	   75.1925 	    2.0000 	   10.0000 	    4.9172
    0.0839 	   75.3183 	    2.0000 	   10.0000 	    5.4202
    0.0534 	   75.4425 	    2.0000 	   10.0000 	    5.9173
    0.1297 	   75.5663 	    2.0000 	   10.0000 	    6.4123
    0.1144 	   75.6905 	    2.0000 	   10.0000 	    6.9093
    0.0534 	   75.8143 	    2.0000 	   10.0000 	    7.4043
    0.0992 	   75.9380 	    2.0000 	   10.0000 	    7.8994
   -0.0381 	   76.0633 	    2.0000 	   10.0000 	    8.4004
    0.1144 	   76.1898 	    2.0000 	   10.0000 	    8.9064
    0.0381 	   76.3193 	    2.0000 	   10.0000 	    9.4245
    0.1450 	   76.4525 	    2.0000 	   10.0000 	    9.9575
    0.1144 	   76.5835 	    2.0000 	   10.0000 	   10.4815
   -0.0687 	   76.7160 	    2.0000 	   10.0000 	   11.0116
    0.1907 	   76.8478 	    2.0000 	   10.0000 	   11.5386
   -0.0381 	   76.9803 	    2.0000 	   10.0000 	   12.0686
    0.0076 	   77.1095 	    2.0000 	   10.0000 	   12.5856
   -0.1297 	   77.2405 	    2.0000 	   10.0000 	   13.1097
    0.1602 	   77.3700 	    2.0000 	   10.0000 	   13.6277
    0.1602 	   77.5040 	    2.0000 	   10.0000 	   14.1637
    0.2060 	   77.6393 	    2.0000 	   10.0000 	   14.7048
    0.1755 	   77.7735 	    2.0000 	   10.0000 	   15.2418
    0.0229 	   77.9043 	    2.0000 	   10.0000 	   15.7648
    0.0534 	   78.0328 	    2.0000 	   10.0000 	   16.2789
    0.1144 	   78.1680 	    2.0000 	   10.0000 	   16.8199
   -0.1602 	   78.2988 	    2.0000 	   10.0000 	   17.3429
    0.0992 	   78.4303 	    2.0000 	   10.0000 	   17.8689
    0.0076 	   78.5588 	    2.0000 	   10.0000 	   18.3830
    0.0992 	   78.6868 	    2.0000 	   10.0000 	   18.8950
    0.0076 	   78.8225 	    2.0000 	   10.0000 	   19.4380
    0.0534 	   78.9535 	    2.0000 	   10.0000 	   19.9621
    0.2670 	   79.0850 	    2.0000 	   10.0000 	   20.4881
   -0.0076 	   79.2225 	    2.0000 	   10.0000 	   21.0371
    0.0229 	   79.3485 	    2.0000 	   10.0000 	   21.5422
   -0.0381 	   79.4750 	    2.0000 	   10.0000 	   22.0482
    0.2060 	   79.6018 	    2.0000 	   10.0000 	   22.5542
   -0.0534 	   79.7290 	    2.0000 	   10.0000 	   23.0632
    0.0687 	   79.8560 	    2.0000 	   10.0000 	   23.5713
    0.0076 	   79.9835 	    2.0000 	   10.0000 	   24.0813
    0.0076 	   80.1113 	    2.0000 	   10.0000 	   24.5923
    0.2213 	   80.2395 	    2.0000 	   10.0000 	   25.1054
    0.1144 	   80.3678 	    2.0000 	   10.0000 	   25.6184
    0.0534 	   80.4958 	    2.0000 	   10.0000 	   26.1304
    0.1144 	   80.6235 	    2.0000 	   10.0000 	   26.6414
    0.0076 	   80.7508 	    2.0000 	   10.0000 	   27.1505
    0.1755 	   80.8775 	    2.0000 	   10.0000 	   27.6575
    0.2060 	   81.0053 	    2.0000 	   10.0000 	   28.1685
    0.0076 	   81.1328 	    2.0000 	   10.0000 	   28.6786
    0.2518 	   81.2610 	    2.0000 	   10.0000 	   29.1916
    0.0534 	   81.3893 	    2.0000 	   10.0000 	   29.7046
    0.0839 	   81.5168 	    2.0000 	   10.0000 	   30.2147
    0.2213 	   81.6450 	    2.0000 	   10.0000 	   30.7277
    0.0687 	   81.7730 	    2.0000 	   10.0000 	   31.2397
    0.0381 	   81.9013 	    2.0000 	   10.0000 	   31.7527
    0.2060 	   82.0300 	    2.0000 	   10.0000 	   32.2678
    0.0534 	   82.1583 	    2.0000 	   10.0000 	   32.7808
    0.1602 	   82.2858 	    2.0000 	   10.0000 	   33.2908
    0.0229 	   82.4133 	    2.0000 	   10.0000 	   33.8009
    0.0534 	   82.5415 	    2.0000 	   10.0000 	   34.3139
    0.0687 	   82.6700 	    2.0000 	   10.0000 	   34.8279
    0.0992 	   82.7990 	    2.0000 	   10.0000 	   35.3439
   -0.0229 	   82.9280 	    2.0000 	   10.0000 	   35.8600
    0.0992 	   83.0588 	    2.0000 	   10.0000 	   36.3830
    0.0839 	   83.1923 	    2.0000 	   10.0000 	   36.9170
    0.0229 	   83.3283 	    2.0000 	   10.0000 	   37.4611
    0.1450 	   83.4598 	    2.0000 	   10.0000 	   37.9871
    0.0076 	   83.5940 	    2.0000 	   10.0000 	   38.5241
    0.0534 	   83.7293 	    2.0000 	   10.0000 	   39.0652
   -0.0381 	   83.8710 	    2.0000 	   10.0000 	   39.6312
    0.0839 	   84.0088 	    2.0000 	   10.0000 	   40.1822
    0.0381 	   84.1410 	    2.0000 	   10.0000 	   40.7113
    0.0687 	   84.2760 	    2.0000 	   10.0000 	   41.2513
    0.1755 	   84.4098 	    2.0000 	   10.0000 	   41.7863
   -0.2823 	   84.5478 	    2.0000 	   10.0000 	   42.3383
    0.0839 	   84.6803 	    2.0000 	   10.0000 	   42.8684
    0.1602 	   84.8155 	    2.0000 	   10.0000 	   43.4094
    0.0534 	   84.9513 	    2.0000 	   10.0000 	   43.9524
    0.2060 	   85.0875 	    2.0000 	   10.0000 	   44.4975
    0.1602 	   85.2225 	    2.0000 	   10.0000 	   45.0375
    0.0381 	   85.3615 	    2.0000 	   10.0000 	   45.5935
    0.1450 	   85.5033 	    2.0000 	   10.0000 	   46.1606
   -0.1907 	   85.6400 	    2.0000 	   10.0000 	   46.7076
    0.0076 	   85.6980 	    2.0000 	   10.0000 	   46.9396