File: instron/10_grey_2W15L_drag50_spd15.txt
Thayer School of Engineering        Instron 4442 Mechanical Testing System
6/28/2018 1:49:18 AM

  Force (N)	Extension (mm)	Not Used	Not Used	Not Used	     Hour	    Minute	    Second
    0.1450 	    0.2558 	    1.0000 	   49.0000 	   42.6093
    0.0534 	    0.4078 	    1.0000 	   49.0000 	   43.2173
    0.0687 	    0.5608 	    1.0000 	   49.0000 	   43.8294
    0.0992 	    0.7210 	    1.0000 	   49.0000 	   44.4704
   -0.1450 	    0.8553 	    1.0000 	   49.0000 	   45.0074
    0.0992 	    0.9608 	    1.0000 	   49.0000 	   45.4295
    0.0992 	    1.0673 	    1.0000 	   49.0000 	   45.8555
   -0.0381 	    1.1640 	    1.0000 	   49.0000 	   46.2425
    0.0381 	    1.2618 	    1.0000 	   49.0000 	   46.6335
    0.0076 	    1.3543 	    1.0000 	   49.0000 	   47.0035
    0.1297 	    1.4510 	    1.0000 	   49.0000 	   47.3906
    0.0839 	    1.5493 	    1.0000 	   49.0000 	   47.7836
    0.0839 	    1.6453 	    1.0000 	   49.0000 	   48.1676
    0.2365 	    1.7415 	    1.0000 	   49.0000 	   48.5526
    0.1450 	    1.8373 	    1.0000 	   49.0000 	   48.9347
    0.1450 	    1.9345 	    1.0000 	   49.0000 	   49.3237
    0.0534 	    2.0305 	    1.0000 	   49.0000 	   49.7077
    0.1755 	    2.1267 	    1.0000 	   49.0000 	   50.0927
    0.1144 	    2.2233 	    1.0000 	   49.0000 	   50.4787
    0.1602 	    2.3180 	    1.0000 	   49.0000 	   50.8578
    0.0687 	    2.4140 	    1.0000 	   49.0000 	   51.2418
    0.1907 	    2.5108 	    1.0000 	   49.0000 	   51.6288
    0.1144 	    2.6083 	    1.0000 	   49.0000 	   52.0188
    0.0839 	    2.7055 	    1.0000 	   49.0000 	   52.4079
    0.0839 	    2.8043 	    1.0000 	   49.0000 	   52.8029
    0.1144 	    2.9038 	    1.0000 	   49.0000 	   53.2009
    0.3738 	    3.0025 	    1.0000 	   49.0000 	   53.5949
    0.2213 	    3.1018 	    1.0000 	   49.0000 	   53.9929
    0.1755 	    3.1985 	    1.0000 	   49.0000 	   54.3800
    0.0229 	    3.2975 	    1.0000 	   49.0000 	   54.7760
    0.0839 	    3.3968 	    1.0000 	   49.0000 	   55.1730
    0.0992 	    3.4945 	    1.0000 	   49.0000 	   55.5640
   -0.0381 	    3.5935 	    1.0000 	   49.0000 	   55.9601
    0.1755 	    3.6935 	    1.0000 	   49.0000 	   56.3601
    0.1907 	    3.7933 	    1.0000 	   49.0000 	   56.7591
    0.0992 	    3.8965 	    1.0000 	   49.0000 	   57.1721
    0.1297 	    3.9978 	    1.0000 	   49.0000 	   57.5771
    0.0687 	    4.0983 	    1.0000 	   49.0000 	   57.9792
    0.2060 	    4.1993 	    1.0000 	   49.0000 	   58.3832
    0.1144 	    4.2993 	    1.0000 	   49.0000 	   58.7832
    0.2518 	    4.3993 	    1.0000 	   49.0000 	   59.1832
    0.0687 	    4.5003 	    1.0000 	   49.0000 	   59.5873
    0.1602 	    4.6038 	    1.0000 	   50.0000 	    0.0013
    0.1755 	    4.7083 	    1.0000 	   50.0000 	    0.4193
    0.1297 	    4.8203 	    1.0000 	   50.0000 	    0.8673
    0.1144 	    4.9165 	    1.0000 	   50.0000 	    1.2524
    0.0687 	    5.0073 	    1.0000 	   50.0000 	    1.6154
    0.2365 	    5.0963 	    1.0000 	   50.0000 	    1.9714
    0.1755 	    5.1918 	    1.0000 	   50.0000 	    2.3534
    0.1450 	    5.2950 	    1.0000 	   50.0000 	    2.7664
    0.1907 	    5.4000 	    1.0000 	   50.0000 	    3.1865
    0.0992 	    5.4948 	    1.0000 	   50.0000 	    3.5655
   -0.0076 	    5.5890 	    1.0000 	   50.0000 	    3.9425
    0.0381 	    5.6898 	    1.0000 	   50.0000 	    4.3455
    0.0687 	    5.7960 	    1.0000 	   50.0000 	    4.7706
   -0.1602 	    5.9010 	    1.0000 	   50.0000 	    5.1906
    0.2823 	    6.0058 	    1.0000 	   50.0000 	    5.6096
    0.1297 	    6.1023 	    1.0000 	   50.0000 	    5.9956
    0.2976 	    6.1953 	    1.0000 	   50.0000 	    6.3667
    0.1450 	    6.2913 	    1.0000 	   50.0000 	    6.7507
    0.1755 	    6.3868 	    1.0000 	   50.0000 	    7.1327
    0.1144 	    6.4805 	    1.0000 	   50.0000 	    7.5077
    0.2365 	    6.5760 	    1.0000 	   50.0000 	    7.8897
    0.0229 	    6.6703 	    1.0000 	   50.0000 	    8.2668
    0.0839 	    6.7655 	    1.0000 	   50.0000 	    8.6478
    0.1144 	    6.8715 	    1.0000 	   50.0000 	    9.0718
    0.1602 	    6.9660 	    1.0000 	   50.0000 	    9.4498
    0.1755 	    7.0615 	    1.0000 	   50.0000 	    9.8319
    0.1907 	    7.1560 	    1.0000 	   50.0000 	   10.2099
   -0.0229 	    7.2520 	    1.0000 	   50.0000 	   10.5939
    0.1907 	    7.3523 	    1.0000 	   50.0000 	   10.9949
    0.1297 	    7.4530 	    1.0000 	   50.0000 	   11.3979
    0.1450 	    7.5505 	    1.0000 	   50.0000 	   11.7880
    0.1450 	    7.6473 	    1.0000 	   50.0000 	   12.1750
    0.3281 	    7.7450 	    1.0000 	   50.0000 	   12.5660
   -0.0839 	    7.8425 	    1.0000 	   50.0000 	   12.9560
    0.1297 	    7.9543 	    1.0000 	   50.0000 	   13.4031
    0.2365 	    8.0550 	    1.0000 	   50.0000 	   13.8061
    0.4044 	    8.1555 	    1.0000 	   50.0000 	   14.2081
    0.2060 	    8.2555 	    1.0000 	   50.0000 	   14.6081
    0.1297 	    8.3535 	    1.0000 	   50.0000 	   15.0001
    0.2060 	    8.4540 	    1.0000 	   50.0000 	   15.4022
    0.1755 	    8.5513 	    1.0000 	   50.0000 	   15.7912
    0.2365 	    8.6595 	    1.0000 	   50.0000 	   16.2242
    0.2976 	    8.7595 	    1.0000 	   50.0000 	   16.6242
    0.0992 	    8.8638 	    1.0000 	   50.0000 	   17.0413
   -0.0687 	    8.9708 	    1.0000 	   50.0000 	   17.4693
    0.1297 	    9.0750 	    1.0000 	   50.0000 	   17.8863
    0.2213 	    9.1745 	    1.0000 	   50.0000 	   18.2843
    0.1907 	    9.2753 	    1.0000 	   50.0000 	   18.6874
    0.1907 	    9.3755 	    1.0000 	   50.0000 	   19.0884
    0.2518 	    9.4785 	    1.0000 	   50.0000 	   19.5004
    0.2670 	    9.5790 	    1.0000 	   50.0000 	   19.9024
    0.2213 	    9.6820 	    1.0000 	   50.0000 	   20.3144
    0.2213 	    9.7915 	    1.0000 	   50.0000 	   20.7525
    0.3738 	    9.9003 	    1.0000 	   50.0000 	   21.1875
    0.2670 	   10.0193 	    1.0000 	   50.0000 	   21.6635
    0.2670 	   10.1258 	    1.0000 	   50.0000 	   22.0896
    0.3281 	   10.2305 	    1.0000 	   50.0000 	   22.5086
    0.2823 	   10.3393 	    1.0000 	   50.0000 	   22.9436
    0.3738 	   10.4563 	    1.0000 	   50.0000 	   23.4116
    0.2518 	   10.5735 	    1.0000 	   50.0000 	   23.8797
    0.1907 	   10.6865 	    1.0000 	   50.0000 	   24.3317
    0.2213 	   10.7998 	    1.0000 	   50.0000 	   24.7847
    0.2518 	   10.9168 	    1.0000 	   50.0000 	   25.2527
    0.4349 	   11.0320 	    1.0000 	   50.0000 	   25.7138
    0.4959 	   11.1493 	    1.0000 	   50.0000 	   26.1828
    0.4044 	   11.2670 	    1.0000 	   50.0000 	   26.6538
    0.6332 	   11.3768 	    1.0000 	   50.0000 	   27.0928
    0.5722 	   11.4910 	    1.0000 	   50.0000 	   27.5499
    0.4349 	   11.6085 	    1.0000 	   50.0000 	   28.0199
    0.7858 	   11.7235 	    1.0000 	   50.0000 	   28.4799
    0.7401 	   11.8263 	    1.0000 	   50.0000 	   28.8909
    0.4349 	   11.9405 	    1.0000 	   50.0000 	   29.3480
    0.7553 	   12.0543 	    1.0000 	   50.0000 	   29.8030
    0.8621 	   12.1688 	    1.0000 	   50.0000 	   30.2610
    0.8316 	   12.2848 	    1.0000 	   50.0000 	   30.7250
    0.8469 	   12.4010 	    1.0000 	   50.0000 	   31.1901
    0.8927 	   12.5150 	    1.0000 	   50.0000 	   31.6461
    0.9842 	   12.6313 	    1.0000 	   50.0000 	   32.1111
    0.9842 	   12.7470 	    1.0000 	   50.0000 	   32.5742
    1.1063 	   12.8648 	    1.0000 	   50.0000 	   33.0452
    1.0758 	   12.9808 	    1.0000 	   50.0000 	   33.5092
    0.8927 	   13.0978 	    1.0000 	   50.0000 	   33.9772
    0.9995 	   13.2155 	    1.0000 	   50.0000 	   34.4483
    1.1215 	   13.3298 	    1.0000 	   50.0000 	   34.9053
    1.1673 	   13.4443 	    1.0000 	   50.0000 	   35.3633
    0.8621 	   13.5598 	    1.0000 	   50.0000 	   35.8253
    1.1673 	   13.6768 	    1.0000 	   50.0000 	   36.2934
    1.2284 	   13.7898 	    1.0000 	   50.0000 	   36.7454
    1.1978 	   13.8960 	    1.0000 	   50.0000 	   37.1704
    1.0758 	   13.9988 	    1.0000 	   50.0000 	   37.5814
    1.3046 	   14.1038 	    1.0000 	   50.0000 	   38.0015
    1.2436 	   14.2068 	    1.0000 	   50.0000 	   38.4135
    1.3962 	   14.3113 	    1.0000 	   50.0000 	   38.8315
    1.2436 	   14.4155 	    1.0000 	   50.0000 	   39.2485
    1.1215 	   14.5205 	    1.0000 	   50.0000 	   39.6686
    1.3046 	   14.6238 	    1.0000 	   50.0000 	   40.0816
    1.3962 	   14.7285 	    1.0000 	   50.0000 	   40.5006
    1.3962 	   14.8320 	    1.0000 	   50.0000 	   40.9146
    1.3504 	   14.9358 	    1.0000 	   50.0000 	   41.3287
    1.5030 	   15.0408 	    1.0000 	   50.0000 	   41.7487
    1.4878 	   15.1445 	    1.0000 	   50.0000 	   42.1637
    1.4878 	   15.2488 	    1.0000 	   50.0000 	   42.5807
    1.4878 	   15.3523 	    1.0000 	   50.0000 	   42.9947
    1.4725 	   15.4643 	    1.0000 	   50.0000 	   43.4428
    1.5488 	   15.5713 	    1.0000 	   50.0000 	   43.8708
    1.4420 	   15.6758 	    1.0000 	   50.0000 	   44.2888
    1.6861 	   15.7800 	    1.0000 	   50.0000 	   44.7048
    1.6403 	   15.8853 	    1.0000 	   50.0000 	   45.1269
    1.4725 	   15.9908 	    1.0000 	   50.0000 	   45.5489
    1.6251 	   16.0955 	    1.0000 	   50.0000 	   45.9679
    1.5183 	   16.2098 	    1.0000 	   50.0000 	   46.4249
    1.7624 	   16.3305 	    1.0000 	   50.0000 	   46.9080
    1.7166 	   16.4478 	    1.0000 	   50.0000 	   47.3770
    1.6251 	   16.5678 	    1.0000 	   50.0000 	   47.8570
    1.7472 	   16.6873 	    1.0000 	   50.0000 	   48.3351
    1.7014 	   16.8060 	    1.0000 	   50.0000 	   48.8101
    1.8692 	   16.9248 	    1.0000 	   50.0000 	   49.2851
    1.6403 	   17.0435 	    1.0000 	   50.0000 	   49.7601
    1.7929 	   17.1628 	    1.0000 	   50.0000 	   50.2372
    1.7777 	   17.2810 	    1.0000 	   50.0000 	   50.7102
    1.7624 	   17.4038 	    1.0000 	   50.0000 	   51.2012
    1.8997 	   17.5270 	    1.0000 	   50.0000 	   51.6942
    1.8235 	   17.6478 	    1.0000 	   50.0000 	   52.1773
    1.7166 	   17.7655 	    1.0000 	   50.0000 	   52.6483
    1.8387 	   17.8863 	    1.0000 	   50.0000 	   53.1313
    1.8692 	   18.0070 	    1.0000 	   50.0000 	   53.6134
    1.8387 	   18.1288 	    1.0000 	   50.0000 	   54.1014
    2.0829 	   18.2505 	    1.0000 	   50.0000 	   54.5884
    2.0066 	   18.3723 	    1.0000 	   50.0000 	   55.0754
    2.0066 	   18.4950 	    1.0000 	   50.0000 	   55.5665
    1.9455 	   18.6168 	    1.0000 	   50.0000 	   56.0535
    2.1744 	   18.7385 	    1.0000 	   50.0000 	   56.5405
    2.1134 	   18.8585 	    1.0000 	   50.0000 	   57.0205
    2.1286 	   18.9743 	    1.0000 	   50.0000 	   57.4836
    2.0981 	   19.0970 	    1.0000 	   50.0000 	   57.9746
    2.0981 	   19.2125 	    1.0000 	   50.0000 	   58.4366
    2.0981 	   19.3300 	    1.0000 	   50.0000 	   58.9057
    2.1134 	   19.4535 	    1.0000 	   50.0000 	   59.3997
    2.2354 	   19.5748 	    1.0000 	   50.0000 	   59.8847
    2.1439 	   19.6980 	    1.0000 	   51.0000 	    0.3777
    2.2049 	   19.8105 	    1.0000 	   51.0000 	    0.8278
    2.3880 	   19.9353 	    1.0000 	   51.0000 	    1.3268
    2.2507 	   20.0585 	    1.0000 	   51.0000 	    1.8198
    2.4186 	   20.1818 	    1.0000 	   51.0000 	    2.3129
    2.4491 	   20.3038 	    1.0000 	   51.0000 	    2.8009
    2.2049 	   20.4275 	    1.0000 	   51.0000 	    3.2959
    2.3575 	   20.5498 	    1.0000 	   51.0000 	    3.7849
    2.3270 	   20.6735 	    1.0000 	   51.0000 	    4.2800
    2.3880 	   20.7988 	    1.0000 	   51.0000 	    4.7810
    2.4491 	   20.9200 	    1.0000 	   51.0000 	    5.2660
    2.3880 	   21.0383 	    1.0000 	   51.0000 	    5.7390
    2.4033 	   21.1613 	    1.0000 	   51.0000 	    6.2311
    2.5711 	   21.2843 	    1.0000 	   51.0000 	    6.7231
    2.5559 	   21.4095 	    1.0000 	   51.0000 	    7.2241
    2.5406 	   21.5340 	    1.0000 	   51.0000 	    7.7212
    2.4796 	   21.6575 	    1.0000 	   51.0000 	    8.2162
    2.4033 	   21.7813 	    1.0000 	   51.0000 	    8.7112
    2.2354 	   21.9060 	    1.0000 	   51.0000 	    9.2102
    2.5711 	   22.0323 	    1.0000 	   51.0000 	    9.7153
    2.6322 	   22.1563 	    1.0000 	   51.0000 	   10.2113
    2.6017 	   22.2813 	    1.0000 	   51.0000 	   10.7113
    2.5864 	   22.4063 	    1.0000 	   51.0000 	   11.2114
    2.7543 	   22.5303 	    1.0000 	   51.0000 	   11.7074
    2.6474 	   22.6510 	    1.0000 	   51.0000 	   12.1904
    2.6627 	   22.7778 	    1.0000 	   51.0000 	   12.6974
    2.6932 	   22.8953 	    1.0000 	   51.0000 	   13.1675
    2.7237 	   23.0188 	    1.0000 	   51.0000 	   13.6615
    2.7543 	   23.1463 	    1.0000 	   51.0000 	   14.1715
    2.9679 	   23.2705 	    1.0000 	   51.0000 	   14.6686
    2.7695 	   23.3958 	    1.0000 	   51.0000 	   15.1696
    2.9526 	   23.5128 	    1.0000 	   51.0000 	   15.6376
    2.9374 	   23.6320 	    1.0000 	   51.0000 	   16.1146
    2.9679 	   23.7593 	    1.0000 	   51.0000 	   16.6227
    2.8763 	   23.8868 	    1.0000 	   51.0000 	   17.1327
    2.9068 	   24.0138 	    1.0000 	   51.0000 	   17.6407
    2.9374 	   24.1365 	    1.0000 	   51.0000 	   18.1318
    2.9831 	   24.2598 	    1.0000 	   51.0000 	   18.6248
    3.0289 	   24.3865 	    1.0000 	   51.0000 	   19.1318
    2.9526 	   24.5120 	    1.0000 	   51.0000 	   19.6338
    2.9679 	   24.6378 	    1.0000 	   51.0000 	   20.1369
    2.9984 	   24.7645 	    1.0000 	   51.0000 	   20.6439
    3.0442 	   24.8958 	    1.0000 	   51.0000 	   21.1689
    3.0442 	   25.0233 	    1.0000 	   51.0000 	   21.6790
    3.2578 	   25.1508 	    1.0000 	   51.0000 	   22.1890
    3.0900 	   25.2773 	    1.0000 	   51.0000 	   22.6950
    3.3188 	   25.4068 	    1.0000 	   51.0000 	   23.2130
    2.9221 	   25.5358 	    1.0000 	   51.0000 	   23.7291
    3.1052 	   25.6640 	    1.0000 	   51.0000 	   24.2421
    3.1968 	   25.7930 	    1.0000 	   51.0000 	   24.7581
    3.3494 	   25.9115 	    1.0000 	   51.0000 	   25.2322
    3.2425 	   26.0258 	    1.0000 	   51.0000 	   25.6892
    3.2731 	   26.1395 	    1.0000 	   51.0000 	   26.1442
    3.3951 	   26.2538 	    1.0000 	   51.0000 	   26.6012
    3.4409 	   26.3678 	    1.0000 	   51.0000 	   27.0573
    3.3951 	   26.4833 	    1.0000 	   51.0000 	   27.5193
    3.4714 	   26.6055 	    1.0000 	   51.0000 	   28.0083
    3.6088 	   26.7350 	    1.0000 	   51.0000 	   28.5264
    3.5630 	   26.8643 	    1.0000 	   51.0000 	   29.0434
    3.3951 	   26.9920 	    1.0000 	   51.0000 	   29.5544
    3.5172 	   27.1223 	    1.0000 	   51.0000 	   30.0754
    3.1510 	   27.2508 	    1.0000 	   51.0000 	   30.5895
    3.6698 	   27.3815 	    1.0000 	   51.0000 	   31.1125
    3.6240 	   27.5095 	    1.0000 	   51.0000 	   31.6245
    3.5477 	   27.6350 	    1.0000 	   51.0000 	   32.1266
    3.6088 	   27.7598 	    1.0000 	   51.0000 	   32.6256
    3.6240 	   27.8853 	    1.0000 	   51.0000 	   33.1276
    3.6851 	   28.0095 	    1.0000 	   51.0000 	   33.6246
    3.7919 	   28.1345 	    1.0000 	   51.0000 	   34.1237
    3.7308 	   28.2640 	    1.0000 	   51.0000 	   34.6417
    3.8224 	   28.3963 	    1.0000 	   51.0000 	   35.1707
    3.8529 	   28.5198 	    1.0000 	   51.0000 	   35.6648
    3.8376 	   28.6518 	    1.0000 	   51.0000 	   36.1928
    3.8682 	   28.7820 	    1.0000 	   51.0000 	   36.7138
    3.9750 	   28.9105 	    1.0000 	   51.0000 	   37.2278
    3.7003 	   29.0430 	    1.0000 	   51.0000 	   37.7579
    4.0513 	   29.1673 	    1.0000 	   51.0000 	   38.2549
    4.0513 	   29.2848 	    1.0000 	   51.0000 	   38.7249
    4.0055 	   29.4028 	    1.0000 	   51.0000 	   39.1970
    4.0818 	   29.5245 	    1.0000 	   51.0000 	   39.6840
    4.0513 	   29.6458 	    1.0000 	   51.0000 	   40.1690
    4.0665 	   29.7640 	    1.0000 	   51.0000 	   40.6420
    4.2954 	   29.8828 	    1.0000 	   51.0000 	   41.1171
    4.0665 	   30.0033 	    1.0000 	   51.0000 	   41.5991
    4.2344 	   30.1218 	    1.0000 	   51.0000 	   42.0731
    4.3412 	   30.2428 	    1.0000 	   51.0000 	   42.5572
    4.2954 	   30.3628 	    1.0000 	   51.0000 	   43.0372
    4.0208 	   30.4815 	    1.0000 	   51.0000 	   43.5122
    4.3717 	   30.5995 	    1.0000 	   51.0000 	   43.9842
    4.4327 	   30.7195 	    1.0000 	   51.0000 	   44.4643
    4.3717 	   30.8390 	    1.0000 	   51.0000 	   44.9423
    4.4785 	   30.9613 	    1.0000 	   51.0000 	   45.4313
    4.3259 	   31.0813 	    1.0000 	   51.0000 	   45.9113
    4.4633 	   31.2045 	    1.0000 	   51.0000 	   46.4044
    4.2649 	   31.3268 	    1.0000 	   51.0000 	   46.8934
    4.4327 	   31.4463 	    1.0000 	   51.0000 	   47.3714
    4.5548 	   31.5688 	    1.0000 	   51.0000 	   47.8615
    4.7532 	   31.6903 	    1.0000 	   51.0000 	   48.3475
    4.6464 	   31.8118 	    1.0000 	   51.0000 	   48.8335
    4.7837 	   31.9333 	    1.0000 	   51.0000 	   49.3195
    4.7074 	   32.0535 	    1.0000 	   51.0000 	   49.8006
    4.7379 	   32.1743 	    1.0000 	   51.0000 	   50.2836
    4.9516 	   32.2943 	    1.0000 	   51.0000 	   50.7636
    4.9058 	   32.4185 	    1.0000 	   51.0000 	   51.2597
    4.8295 	   32.5387 	    1.0000 	   51.0000 	   51.7397
    4.8753 	   32.6595 	    1.0000 	   51.0000 	   52.2237
    4.9363 	   32.7805 	    1.0000 	   51.0000 	   52.7077
    4.8600 	   32.9043 	    1.0000 	   51.0000 	   53.2028
    4.9516 	   33.0260 	    1.0000 	   51.0000 	   53.6898
    5.0889 	   33.1478 	    1.0000 	   51.0000 	   54.1768
    5.1347 	   33.2690 	    1.0000 	   51.0000 	   54.6618
    5.0736 	   33.3935 	    1.0000 	   51.0000 	   55.1599
    5.1804 	   33.5160 	    1.0000 	   51.0000 	   55.6499
    5.2873 	   33.6445 	    1.0000 	   51.0000 	   56.1639
    5.2873 	   33.7683 	    1.0000 	   51.0000 	   56.6590
    5.2110 	   33.8930 	    1.0000 	   51.0000 	   57.1580
    5.3788 	   34.0160 	    1.0000 	   51.0000 	   57.6500
    5.2110 	   34.1408 	    1.0000 	   51.0000 	   58.1490
    5.4093 	   34.2635 	    1.0000 	   51.0000 	   58.6401
    5.1499 	   34.3880 	    1.0000 	   51.0000 	   59.1381
    5.3178 	   34.5095 	    1.0000 	   51.0000 	   59.6241
    5.5467 	   34.6325 	    1.0000 	   52.0000 	    0.1162
    5.3941 	   34.7548 	    1.0000 	   52.0000 	    0.6052
    5.6992 	   34.8775 	    1.0000 	   52.0000 	    1.0962
    5.6687 	   35.0033 	    1.0000 	   52.0000 	    1.5992
    5.6687 	   35.1268 	    1.0000 	   52.0000 	    2.0933
    5.6840 	   35.2528 	    1.0000 	   52.0000 	    2.5973
    5.4704 	   35.3775 	    1.0000 	   52.0000 	    3.0963
    5.6840 	   35.5010 	    1.0000 	   52.0000 	    3.5904
    5.8671 	   35.6248 	    1.0000 	   52.0000 	    4.0854
    5.7755 	   35.7483 	    1.0000 	   52.0000 	    4.5794
    5.9892 	   35.8733 	    1.0000 	   52.0000 	    5.0794
    5.9129 	   35.9967 	    1.0000 	   52.0000 	    5.5735
    5.9892 	   36.1248 	    1.0000 	   52.0000 	    6.0855
    5.9739 	   36.2508 	    1.0000 	   52.0000 	    6.5895
    6.2943 	   36.3740 	    1.0000 	   52.0000 	    7.0826
    6.2028 	   36.4980 	    1.0000 	   52.0000 	    7.5786
    6.2791 	   36.6245 	    1.0000 	   52.0000 	    8.0846
    6.4469 	   36.7583 	    1.0000 	   52.0000 	    8.6196
    6.4775 	   36.8988 	    1.0000 	   52.0000 	    9.1807
    6.4469 	   37.0348 	    1.0000 	   52.0000 	    9.7237
    6.6453 	   37.1625 	    1.0000 	   52.0000 	   10.2357
    6.5537 	   37.2960 	    1.0000 	   52.0000 	   10.7698
    6.6758 	   37.4330 	    1.0000 	   52.0000 	   11.3178
    6.5843 	   37.5705 	    1.0000 	   52.0000 	   11.8678
    6.7521 	   37.7085 	    1.0000 	   52.0000 	   12.4199
    6.8437 	   37.8468 	    1.0000 	   52.0000 	   12.9729
    6.8284 	   37.9827 	    1.0000 	   52.0000 	   13.5169
    6.9352 	   38.1230 	    1.0000 	   52.0000 	   14.0780
    6.9047 	   38.2635 	    1.0000 	   52.0000 	   14.6400
    6.9657 	   38.4008 	    1.0000 	   52.0000 	   15.1890
    7.0726 	   38.5323 	    1.0000 	   52.0000 	   15.7150
    7.2557 	   38.6688 	    1.0000 	   52.0000 	   16.2611
    7.1489 	   38.8070 	    1.0000 	   52.0000 	   16.8141
    7.2709 	   38.9470 	    1.0000 	   52.0000 	   17.3741
    7.2099 	   39.0843 	    1.0000 	   52.0000 	   17.9232
    7.5608 	   39.2113 	    1.0000 	   52.0000 	   18.4312
    7.6677 	   39.3410 	    1.0000 	   52.0000 	   18.9502
    7.5456 	   39.4678 	    1.0000 	   52.0000 	   19.4573
    7.6371 	   39.5953 	    1.0000 	   52.0000 	   19.9673
    7.6066 	   39.7220 	    1.0000 	   52.0000 	   20.4743
    7.7134 	   39.8503 	    1.0000 	   52.0000 	   20.9874
    7.7440 	   39.9830 	    1.0000 	   52.0000 	   21.5184
    7.9576 	   40.1103 	    1.0000 	   52.0000 	   22.0274
    8.0186 	   40.2375 	    1.0000 	   52.0000 	   22.5364
    8.0186 	   40.3645 	    1.0000 	   52.0000 	   23.0445
    8.1254 	   40.4933 	    1.0000 	   52.0000 	   23.5595
    8.1865 	   40.6205 	    1.0000 	   52.0000 	   24.0685
    8.3848 	   40.7493 	    1.0000 	   52.0000 	   24.5836
    8.4001 	   40.8788 	    1.0000 	   52.0000 	   25.1016
    8.4001 	   41.0070 	    1.0000 	   52.0000 	   25.6146
    8.4153 	   41.1393 	    1.0000 	   52.0000 	   26.1436
    8.7053 	   41.2670 	    1.0000 	   52.0000 	   26.6537
    8.8731 	   41.3963 	    1.0000 	   52.0000 	   27.1707
    8.9036 	   41.5250 	    1.0000 	   52.0000 	   27.6857
    8.8731 	   41.6548 	    1.0000 	   52.0000 	   28.2048
    9.1478 	   41.7833 	    1.0000 	   52.0000 	   28.7188
    9.0715 	   41.9173 	    1.0000 	   52.0000 	   29.2548
    9.1325 	   42.0468 	    1.0000 	   52.0000 	   29.7729
    9.3462 	   42.1763 	    1.0000 	   52.0000 	   30.2909
    9.2393 	   42.3060 	    1.0000 	   52.0000 	   30.8099
    9.3309 	   42.4385 	    1.0000 	   52.0000 	   31.3399
    9.5750 	   42.5678 	    1.0000 	   52.0000 	   31.8560
    9.5598 	   42.6980 	    1.0000 	   52.0000 	   32.3780
    9.6208 	   42.8265 	    1.0000 	   52.0000 	   32.8920
    9.7581 	   42.9568 	    1.0000 	   52.0000 	   33.4131
    9.8955 	   43.0873 	    1.0000 	   52.0000 	   33.9351
   10.0481 	   43.2328 	    1.0000 	   52.0000 	   34.5171
   10.0175 	   43.3655 	    1.0000 	   52.0000 	   35.0482
   10.1701 	   43.4968 	    1.0000 	   52.0000 	   35.5732
   10.2617 	   43.6303 	    1.0000 	   52.0000 	   36.1072
   10.1549 	   43.7710 	    1.0000 	   52.0000 	   36.6702
   10.4143 	   43.9183 	    1.0000 	   52.0000 	   37.2593
   10.7195 	   44.0638 	    1.0000 	   52.0000 	   37.8413
   10.7042 	   44.2080 	    1.0000 	   52.0000 	   38.4184
   10.6737 	   44.3543 	    1.0000 	   52.0000 	   39.0034
   10.8873 	   44.4958 	    1.0000 	   52.0000 	   39.5694
   10.9483 	   44.6360 	    1.0000 	   52.0000 	   40.1304
   11.1315 	   44.7775 	    1.0000 	   52.0000 	   40.6965
   11.2535 	   44.9218 	    1.0000 	   52.0000 	   41.2735
   11.3451 	   45.0633 	    1.0000 	   52.0000 	   41.8395
   11.6503 	   45.2080 	    1.0000 	   52.0000 	   42.4186
   11.5129 	   45.3483 	    1.0000 	   52.0000 	   42.9796
   11.9554 	   45.4953 	    1.0000 	   52.0000 	   43.5676
   12.0470 	   45.6333 	    1.0000 	   52.0000 	   44.1187
   11.9249 	   45.7793 	    1.0000 	   52.0000 	   44.7027
   12.2454 	   45.9263 	    1.0000 	   52.0000 	   45.2907
   12.5200 	   46.0648 	    1.0000 	   52.0000 	   45.8448
   12.3980 	   46.2125 	    1.0000 	   52.0000 	   46.4358
   12.5353 	   46.3565 	    1.0000 	   52.0000 	   47.0118
   12.9015 	   46.5038 	    1.0000 	   52.0000 	   47.6009
   12.8710 	   46.6410 	    1.0000 	   52.0000 	   48.1499
   13.1304 	   46.7883 	    1.0000 	   52.0000 	   48.7389
   13.2067 	   46.9348 	    1.0000 	   52.0000 	   49.3250
   13.2677 	   47.0823 	    1.0000 	   52.0000 	   49.9150
   13.4813 	   47.2170 	    1.0000 	   52.0000 	   50.4540
   13.6339 	   47.3520 	    1.0000 	   52.0000 	   50.9941
   13.7255 	   47.4878 	    1.0000 	   52.0000 	   51.5371
   13.8323 	   47.6225 	    1.0000 	   52.0000 	   52.0761
   14.0764 	   47.7570 	    1.0000 	   52.0000 	   52.6142
   14.0612 	   47.8913 	    1.0000 	   52.0000 	   53.1512
   14.2596 	   48.0283 	    1.0000 	   52.0000 	   53.6992
   14.2443 	   48.1640 	    1.0000 	   52.0000 	   54.2423
   14.4274 	   48.2998 	    1.0000 	   52.0000 	   54.7853
   14.6563 	   48.4353 	    1.0000 	   52.0000 	   55.3273
   14.9615 	   48.5703 	    1.0000 	   52.0000 	   55.8673
   15.0683 	   48.7070 	    1.0000 	   52.0000 	   56.4144
   15.2209 	   48.8438 	    1.0000 	   52.0000 	   56.9614
   15.4803 	   48.9793 	    1.0000 	   52.0000 	   57.5034
   15.4650 	   49.1163 	    1.0000 	   52.0000 	   58.0515
   15.5718 	   49.2533 	    1.0000 	   52.0000 	   58.5995
   15.8312 	   49.3908 	    1.0000 	   52.0000 	   59.1495
   16.0601 	   49.5318 	    1.0000 	   52.0000 	   59.7136
   16.3653 	   49.6700 	    1.0000 	   53.0000 	    0.2666
   16.4416 	   49.8065 	    1.0000 	   53.0000 	    0.8126
   16.6400 	   49.9455 	    1.0000 	   53.0000 	    1.3677
   16.8536 	   50.0945 	    1.0000 	   53.0000 	    1.9637
   17.0672 	   50.2408 	    1.0000 	   53.0000 	    2.5487
   17.2503 	   50.3865 	    1.0000 	   53.0000 	    3.1318
   17.4487 	   50.5318 	    1.0000 	   53.0000 	    3.7128
   17.7234 	   50.6740 	    1.0000 	   53.0000 	    4.2818
   17.9217 	   50.8115 	    1.0000 	   53.0000 	    4.8319
   17.7539 	   50.9505 	    1.0000 	   53.0000 	    5.3879
   17.4029 	   51.0880 	    1.0000 	   53.0000 	    5.9379
   17.3114 	   51.2248 	    1.0000 	   53.0000 	    6.4850
   17.1588 	   51.3630 	    1.0000 	   53.0000 	    7.0380
   17.0214 	   51.5010 	    1.0000 	   53.0000 	    7.5900
   16.8536 	   51.6398 	    1.0000 	   53.0000 	    8.1450
   16.8841 	   51.7775 	    1.0000 	   53.0000 	    8.6961
   16.8231 	   51.9220 	    1.0000 	   53.0000 	    9.2741
   16.7468 	   52.0630 	    1.0000 	   53.0000 	    9.8381
   16.6857 	   52.2045 	    1.0000 	   53.0000 	   10.4042
   16.6705 	   52.3475 	    1.0000 	   53.0000 	   10.9762
   16.4263 	   52.4865 	    1.0000 	   53.0000 	   11.5322
   16.5331 	   52.6258 	    1.0000 	   53.0000 	   12.0893
   16.3653 	   52.7648 	    1.0000 	   53.0000 	   12.6453
   16.5026 	   52.9043 	    1.0000 	   53.0000 	   13.2033
   16.2432 	   53.0443 	    1.0000 	   53.0000 	   13.7634
   16.3043 	   53.1840 	    1.0000 	   53.0000 	   14.3224
   16.1669 	   53.3258 	    1.0000 	   53.0000 	   14.8894
   15.8770 	   53.4680 	    1.0000 	   53.0000 	   15.4585
   16.2280 	   53.6095 	    1.0000 	   53.0000 	   16.0245
   16.2127 	   53.7523 	    1.0000 	   53.0000 	   16.5955
   16.0906 	   53.8923 	    1.0000 	   53.0000 	   17.1556
   15.9686 	   54.0333 	    1.0000 	   53.0000 	   17.7196
   15.9991 	   54.1753 	    1.0000 	   53.0000 	   18.2876
   15.9686 	   54.3218 	    1.0000 	   53.0000 	   18.8727
   15.6329 	   54.4635 	    1.0000 	   53.0000 	   19.4397
   15.8923 	   54.6048 	    1.0000 	   53.0000 	   20.0047
   15.8312 	   54.7460 	    1.0000 	   53.0000 	   20.5698
   15.9228 	   54.8878 	    1.0000 	   53.0000 	   21.1368
   15.9075 	   55.0300 	    1.0000 	   53.0000 	   21.7058
   15.5718 	   55.1723 	    1.0000 	   53.0000 	   22.2749
   15.8007 	   55.3138 	    1.0000 	   53.0000 	   22.8409
   15.6176 	   55.4585 	    1.0000 	   53.0000 	   23.4199
   15.7397 	   55.6008 	    1.0000 	   53.0000 	   23.9890
   15.4955 	   55.7430 	    1.0000 	   53.0000 	   24.5580
   15.2514 	   55.8860 	    1.0000 	   53.0000 	   25.1300
   15.5566 	   56.0303 	    1.0000 	   53.0000 	   25.7071
   15.5718 	   56.1740 	    1.0000 	   53.0000 	   26.2821
   15.5108 	   56.3168 	    1.0000 	   53.0000 	   26.8531
   15.6329 	   56.4603 	    1.0000 	   53.0000 	   27.4272
   15.4345 	   56.6055 	    1.0000 	   53.0000 	   28.0082
   15.5108 	   56.7488 	    1.0000 	   53.0000 	   28.5812
   15.3887 	   56.8928 	    1.0000 	   53.0000 	   29.1562
   15.5261 	   57.0368 	    1.0000 	   53.0000 	   29.7333
   15.4498 	   57.1810 	    1.0000 	   53.0000 	   30.3103
   15.3735 	   57.3253 	    1.0000 	   53.0000 	   30.8874
   15.4955 	   57.4708 	    1.0000 	   53.0000 	   31.4684
   15.4345 	   57.6175 	    1.0000 	   53.0000 	   32.0564
   15.2514 	   57.7625 	    1.0000 	   53.0000 	   32.6365
   15.4803 	   57.9098 	    1.0000 	   53.0000 	   33.2255
   15.2514 	   58.0553 	    1.0000 	   53.0000 	   33.8075
   15.3735 	   58.2005 	    1.0000 	   53.0000 	   34.3885
   15.2819 	   58.3468 	    1.0000 	   53.0000 	   34.9736
   15.2514 	   58.4918 	    1.0000 	   53.0000 	   35.5536
   15.2667 	   58.6368 	    1.0000 	   53.0000 	   36.1337
   15.2514 	   58.7910 	    1.0000 	   53.0000 	   36.7497
   15.2667 	   58.9475 	    1.0000 	   53.0000 	   37.3757
   15.4803 	   59.1010 	    1.0000 	   53.0000 	   37.9898
   15.1598 	   59.2500 	    1.0000 	   53.0000 	   38.5858
   15.2209 	   59.4090 	    1.0000 	   53.0000 	   39.2218
   15.0988 	   59.5625 	    1.0000 	   53.0000 	   39.8359
   15.2514 	   59.7218 	    1.0000 	   53.0000 	   40.4729
   15.2514 	   59.8813 	    1.0000 	   53.0000 	   41.1109
   15.0225 	   60.0410 	    1.0000 	   53.0000 	   41.7500
   15.0683 	   60.2000 	    1.0000 	   53.0000 	   42.3860
   14.9462 	   60.3563 	    1.0000 	   53.0000 	   43.0110
   15.1141 	   60.5155 	    1.0000 	   53.0000 	   43.6481
   15.2209 	   60.6755 	    1.0000 	   53.0000 	   44.2881
   14.9615 	   60.8388 	    1.0000 	   53.0000 	   44.9412
   15.0530 	   60.9995 	    1.0000 	   53.0000 	   45.5842
   15.2361 	   61.1550 	    1.0000 	   53.0000 	   46.2062
   14.9615 	   61.3068 	    1.0000 	   53.0000 	   46.8133
   14.9310 	   61.4573 	    1.0000 	   53.0000 	   47.4153
   15.1141 	   61.6093 	    1.0000 	   53.0000 	   48.0233
   14.9615 	   61.7703 	    1.0000 	   53.0000 	   48.6674
   14.9004 	   61.9320 	    1.0000 	   53.0000 	   49.3144
   14.9004 	   62.0925 	    1.0000 	   53.0000 	   49.9564
   14.9462 	   62.2523 	    1.0000 	   53.0000 	   50.5955
   14.9920 	   62.4178 	    1.0000 	   53.0000 	   51.2575
   14.8241 	   62.5805 	    1.0000 	   53.0000 	   51.9086
   15.0225 	   62.7388 	    1.0000 	   53.0000 	   52.5416
   14.9004 	   62.8985 	    1.0000 	   53.0000 	   53.1806
   14.9310 	   63.0603 	    1.0000 	   53.0000 	   53.8267
   14.8394 	   63.2195 	    1.0000 	   53.0000 	   54.4637
   14.7478 	   63.3823 	    1.0000 	   53.0000 	   55.1147
   14.7478 	   63.5453 	    1.0000 	   53.0000 	   55.7658
   14.7478 	   63.6985 	    1.0000 	   53.0000 	   56.3798
   14.6715 	   63.8478 	    1.0000 	   53.0000 	   56.9768
   14.8241 	   64.0005 	    1.0000 	   53.0000 	   57.5879
   14.7478 	   64.1505 	    1.0000 	   53.0000 	   58.1879
   14.6563 	   64.3013 	    1.0000 	   53.0000 	   58.7909
   14.5647 	   64.4505 	    1.0000 	   53.0000 	   59.3880
   14.8241 	   64.6045 	    1.0000 	   54.0000 	    0.0040
   14.7784 	   64.7548 	    1.0000 	   54.0000 	    0.6050
   14.6563 	   64.9053 	    1.0000 	   54.0000 	    1.2071
   14.5953 	   65.0555 	    1.0000 	   54.0000 	    1.8081
   14.7784 	   65.2065 	    1.0000 	   54.0000 	    2.4122
   14.4121 	   65.3573 	    1.0000 	   54.0000 	    3.0152
   14.6105 	   65.5100 	    1.0000 	   54.0000 	    3.6262
   14.8089 	   65.6613 	    1.0000 	   54.0000 	    4.2313
   14.7326 	   65.8145 	    1.0000 	   54.0000 	    4.8443
   14.5495 	   65.9668 	    1.0000 	   54.0000 	    5.4523
   14.5953 	   66.1215 	    1.0000 	   54.0000 	    6.0724
   14.6410 	   66.2728 	    1.0000 	   54.0000 	    6.6774
   14.5800 	   66.4270 	    1.0000 	   54.0000 	    7.2944
   14.8241 	   66.5798 	    1.0000 	   54.0000 	    7.9055
   14.7173 	   66.7320 	    1.0000 	   54.0000 	    8.5145
   14.6715 	   66.8875 	    1.0000 	   54.0000 	    9.1365
   14.5953 	   67.0413 	    1.0000 	   54.0000 	    9.7516
   14.5800 	   67.1950 	    1.0000 	   54.0000 	   10.3666
   14.5647 	   67.3510 	    1.0000 	   54.0000 	   10.9906
   14.5342 	   67.5050 	    1.0000 	   54.0000 	   11.6057
   14.6563 	   67.6583 	    1.0000 	   54.0000 	   12.2187
   14.2901 	   67.8118 	    1.0000 	   54.0000 	   12.8327
   13.4508 	   67.9758 	    1.0000 	   54.0000 	   13.4888
   13.0694 	   68.1428 	    1.0000 	   54.0000 	   14.1568
   12.9625 	   68.3095 	    1.0000 	   54.0000 	   14.8239
   12.2454 	   68.4705 	    1.0000 	   54.0000 	   15.4679
   11.7266 	   68.6318 	    1.0000 	   54.0000 	   16.1129
   11.2840 	   68.7900 	    1.0000 	   54.0000 	   16.7460
   10.7500 	   68.9498 	    1.0000 	   54.0000 	   17.3850
   10.3227 	   69.1183 	    1.0000 	   54.0000 	   18.0590
    9.9718 	   69.2793 	    1.0000 	   54.0000 	   18.7031
    9.6818 	   69.4490 	    1.0000 	   54.0000 	   19.3821
    9.4224 	   69.6108 	    1.0000 	   54.0000 	   20.0292
    9.2088 	   69.7725 	    1.0000 	   54.0000 	   20.6762
    8.8426 	   69.9293 	    1.0000 	   54.0000 	   21.3032
    8.7510 	   70.0868 	    1.0000 	   54.0000 	   21.9333
    8.4001 	   70.2428 	    1.0000 	   54.0000 	   22.5573
    8.2017 	   70.4028 	    1.0000 	   54.0000 	   23.1973
    8.0797 	   70.5600 	    1.0000 	   54.0000 	   23.8264
    7.8508 	   70.7160 	    1.0000 	   54.0000 	   24.4504
    7.3777 	   70.8750 	    1.0000 	   54.0000 	   25.0864
    7.4083 	   71.0318 	    1.0000 	   54.0000 	   25.7135
    7.4388 	   71.1885 	    1.0000 	   54.0000 	   26.3405
    7.3320 	   71.3475 	    1.0000 	   54.0000 	   26.9766
    6.5843 	   71.5098 	    1.0000 	   54.0000 	   27.6256
    6.8742 	   71.6708 	    1.0000 	   54.0000 	   28.2696
    6.8437 	   71.8400 	    1.0000 	   54.0000 	   28.9457
    6.6911 	   72.0073 	    1.0000 	   54.0000 	   29.6147
    6.4775 	   72.1728 	    1.0000 	   54.0000 	   30.2767
    6.4317 	   72.3380 	    1.0000 	   54.0000 	   30.9378
    6.3249 	   72.5028 	    1.0000 	   54.0000 	   31.5968
    6.2028 	   72.6670 	    1.0000 	   54.0000 	   32.2539
    5.8824 	   72.8378 	    1.0000 	   54.0000 	   32.9369
    5.7755 	   73.0003 	    1.0000 	   54.0000 	   33.5869
    5.7145 	   73.1650 	    1.0000 	   54.0000 	   34.2460
    5.7450 	   73.3295 	    1.0000 	   54.0000 	   34.9040
    5.5772 	   73.4988 	    1.0000 	   54.0000 	   35.5811
    5.6229 	   73.6628 	    1.0000 	   54.0000 	   36.2371
    5.1499 	   73.8328 	    1.0000 	   54.0000 	   36.9171
    5.3330 	   74.0043 	    1.0000 	   54.0000 	   37.6032
    5.2415 	   74.1758 	    1.0000 	   54.0000 	   38.2892
    5.1194 	   74.3395 	    1.0000 	   54.0000 	   38.9442
    5.1041 	   74.5035 	    1.0000 	   54.0000 	   39.6003
    4.8905 	   74.6773 	    1.0000 	   54.0000 	   40.2953
    5.1041 	   74.8418 	    1.0000 	   54.0000 	   40.9534
    4.8295 	   75.0078 	    1.0000 	   54.0000 	   41.6174
    4.7532 	   75.1718 	    1.0000 	   54.0000 	   42.2734
    4.8142 	   75.3378 	    1.0000 	   54.0000 	   42.9375
    4.7227 	   75.5093 	    1.0000 	   54.0000 	   43.6235
    4.7532 	   75.6833 	    1.0000 	   54.0000 	   44.3195
    4.7227 	   75.8525 	    1.0000 	   54.0000 	   44.9966
    4.6159 	   76.0248 	    1.0000 	   54.0000 	   45.6856
    4.4175 	   76.1998 	    1.0000 	   54.0000 	   46.3847
    4.5243 	   76.3768 	    1.0000 	   54.0000 	   47.0927
    4.3717 	   76.5503 	    1.0000 	   54.0000 	   47.7867
    4.2496 	   76.7233 	    1.0000 	   54.0000 	   48.4788
    4.2802 	   76.8983 	    1.0000 	   54.0000 	   49.1788
    4.1733 	   77.0703 	    1.0000 	   54.0000 	   49.8669
    4.2344 	   77.2458 	    1.0000 	   54.0000 	   50.5689
    4.0665 	   77.4202 	    1.0000 	   54.0000 	   51.2669
    4.1581 	   77.5863 	    1.0000 	   54.0000 	   51.9310
    3.9139 	   77.7588 	    1.0000 	   54.0000 	   52.6210
    3.9139 	   77.9355 	    1.0000 	   54.0000 	   53.3281
    3.7919 	   78.1050 	    1.0000 	   54.0000 	   54.0061
    3.9902 	   78.2683 	    1.0000 	   54.0000 	   54.6591
    3.7766 	   78.4338 	    1.0000 	   54.0000 	   55.3212
    3.7766 	   78.6013 	    1.0000 	   54.0000 	   55.9912
    3.7003 	   78.7660 	    1.0000 	   54.0000 	   56.6503
    3.6698 	   78.9313 	    1.0000 	   54.0000 	   57.3113
    3.6393 	   79.0950 	    1.0000 	   54.0000 	   57.9663
    3.7308 	   79.2620 	    1.0000 	   54.0000 	   58.6344
    3.6698 	   79.4390 	    1.0000 	   54.0000 	   59.3424
    3.5477 	   79.6083 	    1.0000 	   55.0000 	    0.0194
    3.5477 	   79.7793 	    1.0000 	   55.0000 	    0.7035
    3.5935 	   79.9535 	    1.0000 	   55.0000 	    1.4005
    3.5477 	   80.1223 	    1.0000 	   55.0000 	    2.0756
    3.2731 	   80.2918 	    1.0000 	   55.0000 	    2.7536
    3.3646 	   80.4675 	    1.0000 	   55.0000 	    3.4566
    3.4409 	   80.6385 	    1.0000 	   55.0000 	    4.1397
    3.2578 	   80.8115 	    1.0000 	   55.0000 	    4.8317
    3.2273 	   80.9828 	    1.0000 	   55.0000 	    5.5168
    3.1815 	   81.1548 	    1.0000 	   55.0000 	    6.2048
    3.1968 	   81.3210 	    1.0000 	   55.0000 	    6.8698
    3.1052 	   81.4890 	    1.0000 	   55.0000 	    7.5419
    3.0442 	   81.6575 	    1.0000 	   55.0000 	    8.2159
    3.0137 	   81.8268 	    1.0000 	   55.0000 	    8.8930
    3.1968 	   81.9975 	    1.0000 	   55.0000 	    9.5760
    2.8763 	   82.1663 	    1.0000 	   55.0000 	   10.2510
    2.6474 	   82.3380 	    1.0000 	   55.0000 	   10.9381
    2.9526 	   82.5073 	    1.0000 	   55.0000 	   11.6151
    2.8611 	   82.6788 	    1.0000 	   55.0000 	   12.3012
    2.9526 	   82.8518 	    1.0000 	   55.0000 	   12.9932
    2.8458 	   83.0198 	    1.0000 	   55.0000 	   13.6652
    2.9374 	   83.1888 	    1.0000 	   55.0000 	   14.3413
    2.7237 	   83.3560 	    1.0000 	   55.0000 	   15.0103
    2.7390 	   83.5255 	    1.0000 	   55.0000 	   15.6883
    2.7543 	   83.6948 	    1.0000 	   55.0000 	   16.3654
    2.7695 	   83.8690 	    1.0000 	   55.0000 	   17.0624
    2.7237 	   84.0468 	    1.0000 	   55.0000 	   17.7735
    2.5711 	   84.2208 	    1.0000 	   55.0000 	   18.4695
    2.6169 	   84.3958 	    1.0000 	   55.0000 	   19.1695
    2.6169 	   84.5728 	    1.0000 	   55.0000 	   19.8776
    2.6627 	   84.7498 	    1.0000 	   55.0000 	   20.5856
    2.6017 	   84.9250 	    1.0000 	   55.0000 	   21.2857
    2.5101 	   85.0965 	    1.0000 	   55.0000 	   21.9717
    2.3880 	   85.2723 	    1.0000 	   55.0000 	   22.6747
    2.5559 	   85.4455 	    1.0000 	   55.0000 	   23.3678
    2.4491 	   85.6200 	    1.0000 	   55.0000 	   24.0658
    2.4796 	   85.7928 	    1.0000 	   55.0000 	   24.7569
    2.4033 	   85.9703 	    1.0000 	   55.0000 	   25.4669
    2.4948 	   86.1438 	    1.0000 	   55.0000 	   26.1609
    2.4033 	   86.3195 	    1.0000 	   55.0000 	   26.8640
    2.4033 	   86.4943 	    1.0000 	   55.0000 	   27.5630
    2.3117 	   86.6708 	    1.0000 	   55.0000 	   28.2691
    2.2965 	   86.8478 	    1.0000 	   55.0000 	   28.9771
    2.3117 	   87.0258 	    1.0000 	   55.0000 	   29.6891
    2.3880 	   87.2023 	    1.0000 	   55.0000 	   30.3952
    2.1439 	   87.3805 	    1.0000 	   55.0000 	   31.1082
    2.2049 	   87.5630 	    1.0000 	   55.0000 	   31.8383
    2.2812 	   87.7413 	    1.0000 	   55.0000 	   32.5513
    2.1592 	   87.9258 	    1.0000 	   55.0000 	   33.2894
    2.0981 	   88.1043 	    1.0000 	   55.0000 	   34.0034
    2.0371 	   88.2783 	    1.0000 	   55.0000 	   34.6994
    2.1897 	   88.4563 	    1.0000 	   55.0000 	   35.4115
    1.9760 	   88.6335 	    1.0000 	   55.0000 	   36.1205
    1.9455 	   88.8130 	    1.0000 	   55.0000 	   36.8386
    1.7166 	   88.9910 	    1.0000 	   55.0000 	   37.5506
    2.1439 	   89.1680 	    1.0000 	   55.0000 	   38.2586
    1.9760 	   89.3483 	    1.0000 	   55.0000 	   38.9787
    1.9150 	   89.5283 	    1.0000 	   55.0000 	   39.6987
    1.8540 	   89.7028 	    1.0000 	   55.0000 	   40.3968
    1.8845 	   89.8803 	    1.0000 	   55.0000 	   41.1068
    1.7166 	   90.0578 	    1.0000 	   55.0000 	   41.8168
    1.9150 	   90.2340 	    1.0000 	   55.0000 	   42.5219
    1.7166 	   90.4108 	    1.0000 	   55.0000 	   43.2289
    1.6556 	   90.5863 	    1.0000 	   55.0000 	   43.9310
    1.8082 	   90.7643 	    1.0000 	   55.0000 	   44.6430
    1.8540 	   90.9388 	    1.0000 	   55.0000 	   45.3410
    1.5793 	   91.1188 	    1.0000 	   55.0000 	   46.0611
    1.5946 	   91.2990 	    1.0000 	   55.0000 	   46.7821
    1.7472 	   91.4810 	    1.0000 	   55.0000 	   47.5102
    1.7166 	   91.6583 	    1.0000 	   55.0000 	   48.2192
    1.5488 	   91.8360 	    1.0000 	   55.0000 	   48.9302
    1.5488 	   92.0193 	    1.0000 	   55.0000 	   49.6633
    1.6403 	   92.2008 	    1.0000 	   55.0000 	   50.3893
    1.5335 	   92.3813 	    1.0000 	   55.0000 	   51.1114
    1.4420 	   92.5653 	    1.0000 	   55.0000 	   51.8474
    1.5640 	   92.7448 	    1.0000 	   55.0000 	   52.5655
    1.4572 	   92.9225 	    1.0000 	   55.0000 	   53.2765
    1.5640 	   93.1013 	    1.0000 	   55.0000 	   53.9915
    1.4725 	   93.2818 	    1.0000 	   55.0000 	   54.7136
    1.4115 	   93.4598 	    1.0000 	   55.0000 	   55.4256
    1.3352 	   93.6410 	    1.0000 	   55.0000 	   56.1497
    1.4725 	   93.8215 	    1.0000 	   55.0000 	   56.8717
    1.3962 	   94.0015 	    1.0000 	   55.0000 	   57.5917
    1.2894 	   94.1855 	    1.0000 	   55.0000 	   58.3278
    1.2741 	   94.3655 	    1.0000 	   55.0000 	   59.0478
    1.2894 	   94.5468 	    1.0000 	   55.0000 	   59.7729
    1.2589 	   94.7273 	    1.0000 	   56.0000 	    0.4949
    1.3657 	   94.9158 	    1.0000 	   56.0000 	    1.2490
    1.3504 	   95.0970 	    1.0000 	   56.0000 	    1.9740
    1.0910 	   95.2773 	    1.0000 	   56.0000 	    2.6950
    1.2741 	   95.4590 	    1.0000 	   56.0000 	    3.4221
    0.9232 	   95.6388 	    1.0000 	   56.0000 	    4.1411
    1.1215 	   95.8215 	    1.0000 	   56.0000 	    4.8722
    1.1521 	   96.0035 	    1.0000 	   56.0000 	    5.6002
    1.0300 	   96.1890 	    1.0000 	   56.0000 	    6.3422
    1.1063 	   96.3713 	    1.0000 	   56.0000 	    7.0713
    1.1215 	   96.5543 	    1.0000 	   56.0000 	    7.8033
    1.0452 	   96.7383 	    1.0000 	   56.0000 	    8.5394
    1.0758 	   96.9270 	    1.0000 	   56.0000 	    9.2944
    1.0758 	   97.1155 	    1.0000 	   56.0000 	   10.0485
    0.9079 	   97.2995 	    1.0000 	   56.0000 	   10.7845
    0.8316 	   97.4843 	    1.0000 	   56.0000 	   11.5235
    0.9537 	   97.6690 	    1.0000 	   56.0000 	   12.2626
    0.8469 	   97.8553 	    1.0000 	   56.0000 	   13.0076
    1.1063 	   98.0458 	    1.0000 	   56.0000 	   13.7687
    0.9079 	   98.2338 	    1.0000 	   56.0000 	   14.5207
    0.8469 	   98.4235 	    1.0000 	   56.0000 	   15.2798
    0.8011 	   98.6100 	    1.0000 	   56.0000 	   16.0258
    0.8927 	   98.7958 	    1.0000 	   56.0000 	   16.7688
    0.6943 	   98.9865 	    1.0000 	   56.0000 	   17.5319
    0.7401 	   99.1763 	    1.0000 	   56.0000 	   18.2909
    0.6638 	   99.3633 	    1.0000 	   56.0000 	   19.0390
    0.7401 	   99.5538 	    1.0000 	   56.0000 	   19.8010
    0.7706 	   99.7450 	    1.0000 	   56.0000 	   20.5661
    0.7095 	   99.9293 	    1.0000 	   56.0000 	   21.3031
    0.5722 	  100.1160 	    1.0000 	   56.0000 	   22.0501
    0.6180 	  100.3053 	    1.0000 	   56.0000 	   22.8072
    0.6943 	  100.4923 	    1.0000 	   56.0000 	   23.5552
    0.2518 	  100.6790 	    1.0000 	   56.0000 	   24.3023
    0.5875 	  100.8730 	    1.0000 	   56.0000 	   25.0783
    0.4959 	  101.0673 	    1.0000 	   56.0000 	   25.8554
    0.4349 	  101.2580 	    1.0000 	   56.0000 	   26.6184
    0.2823 	  101.4500 	    1.0000 	   56.0000 	   27.3864
    0.3281 	  101.6403 	    1.0000 	   56.0000 	   28.1475
    0.3281 	  101.8293 	    1.0000 	   56.0000 	   28.9035
    0.2060 	  102.0250 	    1.0000 	   56.0000 	   29.6866
    0.1907 	  102.2108 	    1.0000 	   56.0000 	   30.4296
    0.3433 	  102.3980 	    1.0000 	   56.0000 	   31.1777
    0.4044 	  102.5860 	    1.0000 	   56.0000 	   31.9297
    0.0992 	  102.7748 	    1.0000 	   56.0000 	   32.6847
    0.1907 	  102.9713 	    1.0000 	   56.0000 	   33.4708
    0.2976 	  103.1605 	    1.0000 	   56.0000 	   34.2278
    0.1602 	  103.3543 	    1.0000 	   56.0000 	   35.0029
    0.3433 	  103.5453 	    1.0000 	   56.0000 	   35.7669
    0.3281 	  103.7345 	    1.0000 	   56.0000 	   36.5240
    0.2670 	  103.9278 	    1.0000 	   56.0000 	   37.2970
    0.2365 	  104.1185 	    1.0000 	   56.0000 	   38.0601
    0.1755 	  104.3098 	    1.0000 	   56.0000 	   38.8251
    0.1755 	  104.5050 	    1.0000 	   56.0000 	   39.6061
    0.0992 	  104.6988 	    1.0000 	   56.0000 	   40.3812
    0.1450 	  104.8978 	    1.0000 	   56.0000 	   41.1772
    0.1755 	  105.0988 	    1.0000 	   56.0000 	   41.9813
    0.0992 	  105.2953 	    1.0000 	   56.0000 	   42.7673
    0.1297 	  105.4933 	    1.0000 	   56.0000 	   43.5594
    0.0992 	  105.6898 	    1.0000 	   56.0000 	   44.3454
    0.1602 	  105.8823 	    1.0000 	   56.0000 	   45.1155
    0.1297 	  106.0705 	    1.0000 	   56.0000 	   45.8685
    0.1450 	  106.2693 	    1.0000 	   56.0000 	   46.6635
    0.1907 	  106.4668 	    1.0000 	   56.0000 	   47.4536
    0.1907 	  106.6563 	    1.0000 	   56.0000 	   48.2116
    0.1450 	  106.8525 	    1.0000 	   56.0000 	   48.9957
    0.0381 	  107.0448 	    1.0000 	   56.0000 	   49.7647
    0.1907 	  107.2388 	    1.0000 	   56.0000 	   50.5408
   -0.1602 	  107.4378 	    1.0000 	   56.0000 	   51.3368
    0.0076 	  107.6330 	    1.0000 	   56.0000 	   52.1179
    0.0534 	  107.8310 	    1.0000 	   56.0000 	   52.9099
    0.0839 	  108.0250 	    1.0000 	   56.0000 	   53.6859
    0.2060 	  108.2178 	    1.0000 	   56.0000 	   54.4570
    0.1144 	  108.4160 	    1.0000 	   56.0000 	   55.2500
   -0.1450 	  108.6098 	    1.0000 	   56.0000 	   56.0251
    0.1907 	  108.8030 	    1.0000 	   56.0000 	   56.7981
    0.2823 	  108.9978 	    1.0000 	   56.0000 	   57.5772
    0.1297 	  109.1985 	    1.0000 	   56.0000 	   58.3792
    0.0381 	  109.3990 	    1.0000 	   56.0000 	   59.1823
    0.2060 	  109.5960 	    1.0000 	   56.0000 	   59.9703
    0.1450 	  109.7950 	    1.0000 	   57.0000 	    0.7664
    0.2060 	  109.9958 	    1.0000 	   57.0000 	    1.5694
    0.0687 	  110.1943 	    1.0000 	   57.0000 	    2.3634
   -0.0381 	  110.3913 	    1.0000 	   57.0000 	    3.1515
    0.0839 	  110.5885 	    1.0000 	   57.0000 	    3.9405
    0.1602 	  110.7905 	    1.0000 	   57.0000 	    4.7486
    0.1450 	  110.9928 	    1.0000 	   57.0000 	    5.5576
    0.1602 	  111.1860 	    1.0000 	   57.0000 	    6.3297
    0.0992 	  111.3893 	    1.0000 	   57.0000 	    7.1427
    0.0687 	  111.5910 	    1.0000 	   57.0000 	    7.9498
   -0.0839 	  111.7895 	    1.0000 	   57.0000 	    8.7438
    0.1297 	  111.9908 	    1.0000 	   57.0000 	    9.5489
    0.0992 	  112.1933 	    1.0000 	   57.0000 	   10.3589
    0.1297 	  112.3868 	    1.0000 	   57.0000 	   11.1329
    0.0687 	  112.5858 	    1.0000 	   57.0000 	   11.9290
    0.0687 	  112.7860 	    1.0000 	   57.0000 	   12.7300
    0.1755 	  112.9815 	    1.0000 	   57.0000 	   13.5121
    0.0839 	  113.1753 	    1.0000 	   57.0000 	   14.2871
    0.1755 	  113.3723 	    1.0000 	   57.0000 	   15.0752
    0.3128 	  113.5738 	    1.0000 	   57.0000 	   15.8812
    0.1907 	  113.7680 	    1.0000 	   57.0000 	   16.6583
    0.0839 	  113.9625 	    1.0000 	   57.0000 	   17.4363
    0.1297 	  114.1693 	    1.0000 	   57.0000 	   18.2634
   -0.0229 	  114.3643 	    1.0000 	   57.0000 	   19.0434
    0.1297 	  114.5610 	    1.0000 	   57.0000 	   19.8304
    0.1297 	  114.7618 	    1.0000 	   57.0000 	   20.6335
    0.1755 	  114.9635 	    1.0000 	   57.0000 	   21.4405
    0.1297 	  115.1668 	    1.0000 	   57.0000 	   22.2536
    0.1907 	  115.3670 	    1.0000 	   57.0000 	   23.0546
    0.1297 	  115.5718 	    1.0000 	   57.0000 	   23.8727
    0.0534 	  115.7775 	    1.0000 	   57.0000 	   24.6957
    0.3128 	  115.9808 	    1.0000 	   57.0000 	   25.5088
    0.2976 	  116.1845 	    1.0000 	   57.0000 	   26.3238
   -0.0687 	  116.3918 	    1.0000 	   57.0000 	   27.1529
    0.2976 	  116.5898 	    1.0000 	   57.0000 	   27.9449
    0.2213 	  116.7950 	    1.0000 	   57.0000 	   28.7660
    0.0534 	  116.9978 	    1.0000 	   57.0000 	   29.5770
   -0.0229 	  117.2020 	    1.0000 	   57.0000 	   30.3940
   -0.0229 	  117.4098 	    1.0000 	   57.0000 	   31.2251
    0.0076 	  117.6090 	    1.0000 	   57.0000 	   32.0221
   -0.0839 	  117.8128 	    1.0000 	   57.0000 	   32.8372
   -0.0381 	  118.0153 	    1.0000 	   57.0000 	   33.6472
    0.0687 	  118.2173 	    1.0000 	   57.0000 	   34.4553
    0.0992 	  118.4243 	    1.0000 	   57.0000 	   35.2833
   -0.1297 	  118.6248 	    1.0000 	   57.0000 	   36.0854
    0.1602 	  118.8275 	    1.0000 	   57.0000 	   36.8964
    0.1297 	  119.0353 	    1.0000 	   57.0000 	   37.7275
    0.1144 	  119.2398 	    1.0000 	   57.0000 	   38.5455
    0.1602 	  119.4458 	    1.0000 	   57.0000 	   39.3696
    0.1297 	  119.5663 	    1.0000 	   57.0000 	   39.8516