File: instron/10_grey_1W15L_drag40_spd15.txt
Thayer School of Engineering        Instron 4442 Mechanical Testing System
6/28/2018 3:08:00 AM

  Force (N)	Extension (mm)	Not Used	Not Used	Not Used	     Hour	    Minute	    Second
    0.2823 	    0.2538 	    3.0000 	    8.0000 	   13.4117
    0.0687 	    0.3703 	    3.0000 	    8.0000 	   13.8778
    0.1755 	    0.4720 	    3.0000 	    8.0000 	   14.2848
    0.2060 	    0.5703 	    3.0000 	    8.0000 	   14.6778
    0.1755 	    0.6850 	    3.0000 	    8.0000 	   15.1368
    0.1297 	    0.7950 	    3.0000 	    8.0000 	   15.5769
    0.0992 	    0.8703 	    3.0000 	    8.0000 	   15.8779
    0.1450 	    0.9483 	    3.0000 	    8.0000 	   16.1899
    0.2670 	    1.0120 	    3.0000 	    8.0000 	   16.4449
    0.0687 	    1.0790 	    3.0000 	    8.0000 	   16.7129
    0.1602 	    1.1498 	    3.0000 	    8.0000 	   16.9959
    0.1450 	    1.2220 	    3.0000 	    8.0000 	   17.2850
    0.1907 	    1.2870 	    3.0000 	    8.0000 	   17.5450
    0.2365 	    1.3643 	    3.0000 	    8.0000 	   17.8540
    0.2213 	    1.4318 	    3.0000 	    8.0000 	   18.1240
    0.2213 	    1.4955 	    3.0000 	    8.0000 	   18.3790
    0.1602 	    1.5620 	    3.0000 	    8.0000 	   18.6450
    0.3128 	    1.6345 	    3.0000 	    8.0000 	   18.9351
    0.2518 	    1.6963 	    3.0000 	    8.0000 	   19.1821
    0.3281 	    1.7573 	    3.0000 	    8.0000 	   19.4261
    0.2518 	    1.8188 	    3.0000 	    8.0000 	   19.6721
    0.2060 	    1.8798 	    3.0000 	    8.0000 	   19.9161
    0.1602 	    1.9413 	    3.0000 	    8.0000 	   20.1611
    0.2670 	    2.0015 	    3.0000 	    8.0000 	   20.4031
    0.2670 	    2.0668 	    3.0000 	    8.0000 	   20.6642
    0.1755 	    2.1378 	    3.0000 	    8.0000 	   20.9482
    0.1144 	    2.2063 	    3.0000 	    8.0000 	   21.2222
    0.2670 	    2.2710 	    3.0000 	    8.0000 	   21.4812
    0.3433 	    2.3368 	    3.0000 	    8.0000 	   21.7442
    0.4196 	    2.4038 	    3.0000 	    8.0000 	   22.0122
    0.4044 	    2.4735 	    3.0000 	    8.0000 	   22.2912
    0.1602 	    2.5385 	    3.0000 	    8.0000 	   22.5513
    0.4044 	    2.6035 	    3.0000 	    8.0000 	   22.8113
    0.1602 	    2.6663 	    3.0000 	    8.0000 	   23.0623
    0.3891 	    2.7305 	    3.0000 	    8.0000 	   23.3193
    0.3586 	    2.7955 	    3.0000 	    8.0000 	   23.5793
    0.2213 	    2.8608 	    3.0000 	    8.0000 	   23.8403
    0.4349 	    2.9323 	    3.0000 	    8.0000 	   24.1263
    0.3891 	    3.0023 	    3.0000 	    8.0000 	   24.4064
    0.3738 	    3.0755 	    3.0000 	    8.0000 	   24.6984
    0.4196 	    3.1453 	    3.0000 	    8.0000 	   24.9774
    0.3281 	    3.2185 	    3.0000 	    8.0000 	   25.2704
    0.2518 	    3.2855 	    3.0000 	    8.0000 	   25.5384
    0.4501 	    3.3585 	    3.0000 	    8.0000 	   25.8304
    0.3738 	    3.4283 	    3.0000 	    8.0000 	   26.1095
    0.3433 	    3.4973 	    3.0000 	    8.0000 	   26.3855
    0.3891 	    3.5675 	    3.0000 	    8.0000 	   26.6665
    0.3891 	    3.6413 	    3.0000 	    8.0000 	   26.9615
    0.6180 	    3.7058 	    3.0000 	    8.0000 	   27.2195
    0.4196 	    3.7765 	    3.0000 	    8.0000 	   27.5025
    0.3586 	    3.8418 	    3.0000 	    8.0000 	   27.7636
    0.5570 	    3.9048 	    3.0000 	    8.0000 	   28.0156
    0.4807 	    3.9698 	    3.0000 	    8.0000 	   28.2756
    0.6027 	    4.0408 	    3.0000 	    8.0000 	   28.5596
    0.5417 	    4.1123 	    3.0000 	    8.0000 	   28.8456
    0.5570 	    4.1863 	    3.0000 	    8.0000 	   29.1416
    0.5264 	    4.2530 	    3.0000 	    8.0000 	   29.4076
    0.5570 	    4.3253 	    3.0000 	    8.0000 	   29.6977
    0.7553 	    4.3948 	    3.0000 	    8.0000 	   29.9757
    0.4807 	    4.4705 	    3.0000 	    8.0000 	   30.2787
    0.6180 	    4.5358 	    3.0000 	    8.0000 	   30.5397
    0.5875 	    4.6028 	    3.0000 	    8.0000 	   30.8077
    0.7401 	    4.6740 	    3.0000 	    8.0000 	   31.0927
    0.7858 	    4.7480 	    3.0000 	    8.0000 	   31.3888
    0.6943 	    4.8125 	    3.0000 	    8.0000 	   31.6468
    0.6485 	    4.8790 	    3.0000 	    8.0000 	   31.9128
    0.7858 	    4.9508 	    3.0000 	    8.0000 	   32.1998
    0.6638 	    5.0195 	    3.0000 	    8.0000 	   32.4748
    0.7706 	    5.0868 	    3.0000 	    8.0000 	   32.7438
    0.6638 	    5.1618 	    3.0000 	    8.0000 	   33.0439
    0.6638 	    5.2333 	    3.0000 	    8.0000 	   33.3299
    0.9384 	    5.3033 	    3.0000 	    8.0000 	   33.6099
    0.6332 	    5.3873 	    3.0000 	    8.0000 	   33.9459
    0.7553 	    5.4615 	    3.0000 	    8.0000 	   34.2429
    0.7858 	    5.5338 	    3.0000 	    8.0000 	   34.5319
    0.7401 	    5.6090 	    3.0000 	    8.0000 	   34.8330
    0.7858 	    5.6843 	    3.0000 	    8.0000 	   35.1340
    0.7248 	    5.7545 	    3.0000 	    8.0000 	   35.4150
    0.8774 	    5.8240 	    3.0000 	    8.0000 	   35.6930
    0.8469 	    5.8995 	    3.0000 	    8.0000 	   35.9950
    0.8774 	    5.9748 	    3.0000 	    8.0000 	   36.2960
    0.8316 	    6.0438 	    3.0000 	    8.0000 	   36.5721
    0.8469 	    6.1150 	    3.0000 	    8.0000 	   36.8571
    0.7553 	    6.1893 	    3.0000 	    8.0000 	   37.1541
    0.8011 	    6.2608 	    3.0000 	    8.0000 	   37.4401
    0.7553 	    6.3283 	    3.0000 	    8.0000 	   37.7101
    0.7553 	    6.3960 	    3.0000 	    8.0000 	   37.9801
    0.7706 	    6.4695 	    3.0000 	    8.0000 	   38.2752
    0.8774 	    6.5393 	    3.0000 	    8.0000 	   38.5542
    0.7858 	    6.6160 	    3.0000 	    8.0000 	   38.8612
    0.8621 	    6.6895 	    3.0000 	    8.0000 	   39.1552
    0.7553 	    6.7635 	    3.0000 	    8.0000 	   39.4512
    0.9232 	    6.8373 	    3.0000 	    8.0000 	   39.7462
    0.8316 	    6.9143 	    3.0000 	    8.0000 	   40.0543
    0.8774 	    6.9845 	    3.0000 	    8.0000 	   40.3353
    0.8927 	    7.0553 	    3.0000 	    8.0000 	   40.6183
    0.9842 	    7.1300 	    3.0000 	    8.0000 	   40.9173
    0.8316 	    7.2048 	    3.0000 	    8.0000 	   41.2163
    1.0147 	    7.2778 	    3.0000 	    8.0000 	   41.5083
    1.0605 	    7.3490 	    3.0000 	    8.0000 	   41.7934
    0.7706 	    7.4298 	    3.0000 	    8.0000 	   42.1154
    0.8774 	    7.5040 	    3.0000 	    8.0000 	   42.4124
    1.0147 	    7.5773 	    3.0000 	    8.0000 	   42.7054
    0.9689 	    7.6545 	    3.0000 	    8.0000 	   43.0144
    1.0147 	    7.7325 	    3.0000 	    8.0000 	   43.3264
    0.9537 	    7.8055 	    3.0000 	    8.0000 	   43.6185
    1.0910 	    7.8808 	    3.0000 	    8.0000 	   43.9195
    0.9384 	    7.9570 	    3.0000 	    8.0000 	   44.2245
    0.9842 	    8.0323 	    3.0000 	    8.0000 	   44.5255
    1.0605 	    8.1090 	    3.0000 	    8.0000 	   44.8325
    0.8774 	    8.1800 	    3.0000 	    8.0000 	   45.1166
    0.8621 	    8.2530 	    3.0000 	    8.0000 	   45.4086
    0.8927 	    8.3235 	    3.0000 	    8.0000 	   45.6906
    0.9537 	    8.3970 	    3.0000 	    8.0000 	   45.9846
    1.1368 	    8.4708 	    3.0000 	    8.0000 	   46.2796
    1.0147 	    8.5428 	    3.0000 	    8.0000 	   46.5676
    0.7706 	    8.6143 	    3.0000 	    8.0000 	   46.8536
    0.9842 	    8.6930 	    3.0000 	    8.0000 	   47.1687
    1.0605 	    8.7663 	    3.0000 	    8.0000 	   47.4617
    1.0758 	    8.8380 	    3.0000 	    8.0000 	   47.7487
    1.0300 	    8.9143 	    3.0000 	    8.0000 	   48.0537
    1.0300 	    8.9918 	    3.0000 	    8.0000 	   48.3637
    1.0452 	    9.0650 	    3.0000 	    8.0000 	   48.6567
    0.9689 	    9.1385 	    3.0000 	    8.0000 	   48.9508
    0.9537 	    9.2118 	    3.0000 	    8.0000 	   49.2438
    1.0300 	    9.2865 	    3.0000 	    8.0000 	   49.5428
    0.9995 	    9.3645 	    3.0000 	    8.0000 	   49.8548
    0.9842 	    9.4415 	    3.0000 	    8.0000 	   50.1628
    1.1673 	    9.5225 	    3.0000 	    8.0000 	   50.4869
    1.0300 	    9.6008 	    3.0000 	    8.0000 	   50.7999
    1.1978 	    9.6795 	    3.0000 	    8.0000 	   51.1139
    1.1826 	    9.7528 	    3.0000 	    8.0000 	   51.4079
    1.2131 	    9.8303 	    3.0000 	    8.0000 	   51.7179
    0.8316 	    9.9120 	    3.0000 	    8.0000 	   52.0449
    1.1521 	    9.9850 	    3.0000 	    8.0000 	   52.3370
    1.1521 	   10.0600 	    3.0000 	    8.0000 	   52.6370
    1.3199 	   10.1355 	    3.0000 	    8.0000 	   52.9390
    1.1368 	   10.2138 	    3.0000 	    8.0000 	   53.2520
    1.3657 	   10.2895 	    3.0000 	    8.0000 	   53.5550
    1.1673 	   10.3650 	    3.0000 	    8.0000 	   53.8570
    0.9079 	   10.4485 	    3.0000 	    8.0000 	   54.1911
    1.0910 	   10.5265 	    3.0000 	    8.0000 	   54.5031
    1.2741 	   10.6060 	    3.0000 	    8.0000 	   54.8211
    1.2436 	   10.6865 	    3.0000 	    8.0000 	   55.1431
    1.1521 	   10.7683 	    3.0000 	    8.0000 	   55.4701
    1.1673 	   10.8455 	    3.0000 	    8.0000 	   55.7792
    1.2284 	   10.9275 	    3.0000 	    8.0000 	   56.1072
    1.3962 	   11.0095 	    3.0000 	    8.0000 	   56.4352
    1.1063 	   11.0928 	    3.0000 	    8.0000 	   56.7682
    1.1978 	   11.1725 	    3.0000 	    8.0000 	   57.0872
    1.2284 	   11.2550 	    3.0000 	    8.0000 	   57.4173
    1.0758 	   11.3295 	    3.0000 	    8.0000 	   57.7153
    1.2131 	   11.4140 	    3.0000 	    8.0000 	   58.0533
    1.2436 	   11.4983 	    3.0000 	    8.0000 	   58.3903
    1.4115 	   11.5750 	    3.0000 	    8.0000 	   58.6973
    1.3046 	   11.6510 	    3.0000 	    8.0000 	   59.0013
    1.3352 	   11.7268 	    3.0000 	    8.0000 	   59.3044
    1.2436 	   11.8045 	    3.0000 	    8.0000 	   59.6144
    1.3504 	   11.8818 	    3.0000 	    8.0000 	   59.9234
    1.2436 	   11.9600 	    3.0000 	    9.0000 	    0.2364
    1.3352 	   12.0388 	    3.0000 	    9.0000 	    0.5514
    1.3657 	   12.1170 	    3.0000 	    9.0000 	    0.8644
    1.2589 	   12.1975 	    3.0000 	    9.0000 	    1.1865
    1.2589 	   12.2793 	    3.0000 	    9.0000 	    1.5135
    1.4725 	   12.3605 	    3.0000 	    9.0000 	    1.8385
    1.4115 	   12.4380 	    3.0000 	    9.0000 	    2.1485
    1.2894 	   12.5225 	    3.0000 	    9.0000 	    2.4865
    1.3046 	   12.6015 	    3.0000 	    9.0000 	    2.8016
    1.4725 	   12.6825 	    3.0000 	    9.0000 	    3.1266
    1.4115 	   12.7640 	    3.0000 	    9.0000 	    3.4526
    1.3962 	   12.8463 	    3.0000 	    9.0000 	    3.7816
    1.4420 	   12.9285 	    3.0000 	    9.0000 	    4.1106
    1.3962 	   13.0090 	    3.0000 	    9.0000 	    4.4327
    1.5030 	   13.0900 	    3.0000 	    9.0000 	    4.7567
    1.5030 	   13.1725 	    3.0000 	    9.0000 	    5.0867
    1.2436 	   13.2533 	    3.0000 	    9.0000 	    5.4097
    1.4878 	   13.3395 	    3.0000 	    9.0000 	    5.7547
    1.5183 	   13.4258 	    3.0000 	    9.0000 	    6.0997
    1.6251 	   13.5068 	    3.0000 	    9.0000 	    6.4238
    1.4572 	   13.5853 	    3.0000 	    9.0000 	    6.7378
    1.5183 	   13.6688 	    3.0000 	    9.0000 	    7.0718
    1.5183 	   13.7538 	    3.0000 	    9.0000 	    7.4118
    1.4420 	   13.8328 	    3.0000 	    9.0000 	    7.7278
    1.4420 	   13.9098 	    3.0000 	    9.0000 	    8.0359
    1.4267 	   13.9945 	    3.0000 	    9.0000 	    8.3749
    1.2589 	   14.0770 	    3.0000 	    9.0000 	    8.7049
    1.4420 	   14.1555 	    3.0000 	    9.0000 	    9.0189
    1.4725 	   14.2390 	    3.0000 	    9.0000 	    9.3529
    1.4878 	   14.3233 	    3.0000 	    9.0000 	    9.6900
    1.5030 	   14.4063 	    3.0000 	    9.0000 	   10.0220
    1.7014 	   14.4938 	    3.0000 	    9.0000 	   10.3720
    1.5183 	   14.5770 	    3.0000 	    9.0000 	   10.7050
    1.5335 	   14.6575 	    3.0000 	    9.0000 	   11.0270
    1.4878 	   14.7410 	    3.0000 	    9.0000 	   11.3610
    1.5183 	   14.8240 	    3.0000 	    9.0000 	   11.6931
    1.6251 	   14.9063 	    3.0000 	    9.0000 	   12.0221
    1.5488 	   14.9928 	    3.0000 	    9.0000 	   12.3681
    1.5030 	   15.0733 	    3.0000 	    9.0000 	   12.6901
    1.7319 	   15.1538 	    3.0000 	    9.0000 	   13.0121
    1.6251 	   15.2435 	    3.0000 	    9.0000 	   13.3712
    1.4267 	   15.3248 	    3.0000 	    9.0000 	   13.6962
    1.3352 	   15.4080 	    3.0000 	    9.0000 	   14.0292
    1.5640 	   15.4958 	    3.0000 	    9.0000 	   14.3802
    1.6861 	   15.5808 	    3.0000 	    9.0000 	   14.7202
    1.5793 	   15.6648 	    3.0000 	    9.0000 	   15.0563
    1.5640 	   15.7473 	    3.0000 	    9.0000 	   15.3863
    1.7624 	   15.8330 	    3.0000 	    9.0000 	   15.7293
    1.6861 	   15.9198 	    3.0000 	    9.0000 	   16.0763
    1.7929 	   16.0072 	    3.0000 	    9.0000 	   16.4263
    1.6098 	   16.0933 	    3.0000 	    9.0000 	   16.7704
    1.7624 	   16.1825 	    3.0000 	    9.0000 	   17.1264
    1.8540 	   16.2688 	    3.0000 	    9.0000 	   17.4714
    1.6251 	   16.3518 	    3.0000 	    9.0000 	   17.8034
    1.5946 	   16.4345 	    3.0000 	    9.0000 	   18.1344
    1.7929 	   16.5158 	    3.0000 	    9.0000 	   18.4595
    1.8082 	   16.5978 	    3.0000 	    9.0000 	   18.7875
    1.5488 	   16.6825 	    3.0000 	    9.0000 	   19.1265
    1.7624 	   16.7668 	    3.0000 	    9.0000 	   19.4635
    1.4420 	   16.8465 	    3.0000 	    9.0000 	   19.7825
    1.6861 	   16.9253 	    3.0000 	    9.0000 	   20.0975
    1.7166 	   17.0055 	    3.0000 	    9.0000 	   20.4186
    1.8082 	   17.0878 	    3.0000 	    9.0000 	   20.7476
    1.9608 	   17.1690 	    3.0000 	    9.0000 	   21.0726
    1.8235 	   17.2593 	    3.0000 	    9.0000 	   21.4336
    1.7929 	   17.3435 	    3.0000 	    9.0000 	   21.7706
    1.7624 	   17.4237 	    3.0000 	    9.0000 	   22.0917
    1.5946 	   17.5053 	    3.0000 	    9.0000 	   22.4177
    1.8387 	   17.5898 	    3.0000 	    9.0000 	   22.7557
    1.8082 	   17.6718 	    3.0000 	    9.0000 	   23.0837
    2.0523 	   17.7583 	    3.0000 	    9.0000 	   23.4297
    1.7777 	   17.8463 	    3.0000 	    9.0000 	   23.7818
    1.8082 	   17.9263 	    3.0000 	    9.0000 	   24.1018
    1.8235 	   18.0133 	    3.0000 	    9.0000 	   24.4498
    1.9760 	   18.0988 	    3.0000 	    9.0000 	   24.7918
    1.7624 	   18.1868 	    3.0000 	    9.0000 	   25.1438
    1.8692 	   18.2783 	    3.0000 	    9.0000 	   25.5099
    1.8997 	   18.3633 	    3.0000 	    9.0000 	   25.8499
    1.8692 	   18.4528 	    3.0000 	    9.0000 	   26.2079
    1.8692 	   18.5425 	    3.0000 	    9.0000 	   26.5669
    1.9608 	   18.6240 	    3.0000 	    9.0000 	   26.8929
    1.7929 	   18.7080 	    3.0000 	    9.0000 	   27.2290
    1.8692 	   18.7958 	    3.0000 	    9.0000 	   27.5800
    1.9150 	   18.8810 	    3.0000 	    9.0000 	   27.9210
    1.9303 	   18.9698 	    3.0000 	    9.0000 	   28.2760
    1.9913 	   19.0595 	    3.0000 	    9.0000 	   28.6350
    1.9455 	   19.1430 	    3.0000 	    9.0000 	   28.9691
    1.9608 	   19.2308 	    3.0000 	    9.0000 	   29.3201
    1.9608 	   19.3153 	    3.0000 	    9.0000 	   29.6581
    1.9760 	   19.4023 	    3.0000 	    9.0000 	   30.0061
    2.0371 	   19.4890 	    3.0000 	    9.0000 	   30.3531
    1.9913 	   19.5758 	    3.0000 	    9.0000 	   30.7002
    1.8845 	   19.6605 	    3.0000 	    9.0000 	   31.0392
    1.9150 	   19.7505 	    3.0000 	    9.0000 	   31.3992
    1.9303 	   19.8350 	    3.0000 	    9.0000 	   31.7372
    1.9913 	   19.9193 	    3.0000 	    9.0000 	   32.0742
    1.9150 	   20.0123 	    3.0000 	    9.0000 	   32.4463
    2.0523 	   20.0978 	    3.0000 	    9.0000 	   32.7883
    2.0523 	   20.1898 	    3.0000 	    9.0000 	   33.1563
    2.0218 	   20.2790 	    3.0000 	    9.0000 	   33.5133
    1.9455 	   20.3690 	    3.0000 	    9.0000 	   33.8733
    2.0218 	   20.4585 	    3.0000 	    9.0000 	   34.2314
    1.9913 	   20.5533 	    3.0000 	    9.0000 	   34.6094
    1.9913 	   20.6378 	    3.0000 	    9.0000 	   34.9474
    2.1744 	   20.7268 	    3.0000 	    9.0000 	   35.3034
    2.0829 	   20.8168 	    3.0000 	    9.0000 	   35.6634
    1.8387 	   20.9070 	    3.0000 	    9.0000 	   36.0235
    2.1592 	   20.9970 	    3.0000 	    9.0000 	   36.3845
    2.1134 	   21.0873 	    3.0000 	    9.0000 	   36.7455
    2.1134 	   21.1758 	    3.0000 	    9.0000 	   37.0995
    2.2507 	   21.2685 	    3.0000 	    9.0000 	   37.4705
    2.2049 	   21.3563 	    3.0000 	    9.0000 	   37.8216
    2.2202 	   21.4465 	    3.0000 	    9.0000 	   38.1826
    2.1897 	   21.5403 	    3.0000 	    9.0000 	   38.5576
    2.0523 	   21.6275 	    3.0000 	    9.0000 	   38.9066
    2.3117 	   21.7175 	    3.0000 	    9.0000 	   39.2666
    2.2202 	   21.8095 	    3.0000 	    9.0000 	   39.6347
    2.2202 	   21.8985 	    3.0000 	    9.0000 	   39.9907
    2.2507 	   21.9905 	    3.0000 	    9.0000 	   40.3587
    2.1744 	   22.0835 	    3.0000 	    9.0000 	   40.7307
    2.2965 	   22.1748 	    3.0000 	    9.0000 	   41.0957
    2.2812 	   22.2698 	    3.0000 	    9.0000 	   41.4758
    2.2660 	   22.3620 	    3.0000 	    9.0000 	   41.8448
    2.2202 	   22.4530 	    3.0000 	    9.0000 	   42.2088
    2.2965 	   22.5458 	    3.0000 	    9.0000 	   42.5798
    2.3270 	   22.6325 	    3.0000 	    9.0000 	   42.9269
    2.0523 	   22.7238 	    3.0000 	    9.0000 	   43.2919
    2.3270 	   22.8110 	    3.0000 	    9.0000 	   43.6409
    2.2202 	   22.8988 	    3.0000 	    9.0000 	   43.9919
    2.2812 	   22.9933 	    3.0000 	    9.0000 	   44.3699
    2.3270 	   23.0833 	    3.0000 	    9.0000 	   44.7300
    2.4491 	   23.1750 	    3.0000 	    9.0000 	   45.0970
    2.4186 	   23.2695 	    3.0000 	    9.0000 	   45.4750
    2.3728 	   23.3595 	    3.0000 	    9.0000 	   45.8350
    2.3728 	   23.4483 	    3.0000 	    9.0000 	   46.1900
    2.1439 	   23.5443 	    3.0000 	    9.0000 	   46.5741
    2.3880 	   23.6400 	    3.0000 	    9.0000 	   46.9571
    2.4948 	   23.7300 	    3.0000 	    9.0000 	   47.3171
    2.3880 	   23.8223 	    3.0000 	    9.0000 	   47.6861
    2.5406 	   23.9118 	    3.0000 	    9.0000 	   48.0441
    2.4491 	   24.0063 	    3.0000 	    9.0000 	   48.4222
    2.4033 	   24.1003 	    3.0000 	    9.0000 	   48.7982
    2.4186 	   24.1908 	    3.0000 	    9.0000 	   49.1602
    2.4033 	   24.2795 	    3.0000 	    9.0000 	   49.5152
    2.5406 	   24.3673 	    3.0000 	    9.0000 	   49.8663
    2.4948 	   24.4533 	    3.0000 	    9.0000 	   50.2103
    2.4796 	   24.5430 	    3.0000 	    9.0000 	   50.5693
    2.2507 	   24.6303 	    3.0000 	    9.0000 	   50.9183
    2.6017 	   24.7265 	    3.0000 	    9.0000 	   51.3033
    2.4796 	   24.8195 	    3.0000 	    9.0000 	   51.6754
    2.5254 	   24.9090 	    3.0000 	    9.0000 	   52.0324
    2.4643 	   25.0033 	    3.0000 	    9.0000 	   52.4094
    2.5711 	   25.1003 	    3.0000 	    9.0000 	   52.7974
    2.6017 	   25.1933 	    3.0000 	    9.0000 	   53.1694
    2.5864 	   25.2883 	    3.0000 	    9.0000 	   53.5495
    2.5101 	   25.3830 	    3.0000 	    9.0000 	   53.9285
    2.5101 	   25.4713 	    3.0000 	    9.0000 	   54.2815
    2.6627 	   25.5608 	    3.0000 	    9.0000 	   54.6395
    2.6780 	   25.6523 	    3.0000 	    9.0000 	   55.0055
    2.6627 	   25.7450 	    3.0000 	    9.0000 	   55.3766
    2.6627 	   25.8373 	    3.0000 	    9.0000 	   55.7456
    2.5559 	   25.9263 	    3.0000 	    9.0000 	   56.1016
    2.7085 	   26.0238 	    3.0000 	    9.0000 	   56.4916
    2.6932 	   26.1160 	    3.0000 	    9.0000 	   56.8607
    2.5406 	   26.2063 	    3.0000 	    9.0000 	   57.2217
    2.7390 	   26.3030 	    3.0000 	    9.0000 	   57.6087
    2.8153 	   26.3925 	    3.0000 	    9.0000 	   57.9667
    2.7695 	   26.4843 	    3.0000 	    9.0000 	   58.3337
    2.7237 	   26.5813 	    3.0000 	    9.0000 	   58.7218
    2.7237 	   26.6755 	    3.0000 	    9.0000 	   59.0988
    2.6932 	   26.7720 	    3.0000 	    9.0000 	   59.4848
    2.8305 	   26.8680 	    3.0000 	    9.0000 	   59.8688
    2.7695 	   26.9603 	    3.0000 	   10.0000 	    0.2378
    2.8153 	   27.0563 	    3.0000 	   10.0000 	    0.6219
    2.7543 	   27.1500 	    3.0000 	   10.0000 	    0.9969
    2.4948 	   27.2448 	    3.0000 	   10.0000 	    1.3759
    2.7848 	   27.3383 	    3.0000 	   10.0000 	    1.7499
    2.8763 	   27.4310 	    3.0000 	   10.0000 	    2.1210
    2.8458 	   27.5268 	    3.0000 	   10.0000 	    2.5040
    2.7695 	   27.6208 	    3.0000 	   10.0000 	    2.8800
    2.8153 	   27.7130 	    3.0000 	   10.0000 	    3.2490
    3.2883 	   27.8083 	    3.0000 	   10.0000 	    3.6300
    2.8458 	   27.8993 	    3.0000 	   10.0000 	    3.9941
    2.8763 	   27.9903 	    3.0000 	   10.0000 	    4.3581
    2.9984 	   28.0863 	    3.0000 	   10.0000 	    4.7421
    2.7390 	   28.1768 	    3.0000 	   10.0000 	    5.1041
    2.8611 	   28.2700 	    3.0000 	   10.0000 	    5.4771
    2.8611 	   28.3668 	    3.0000 	   10.0000 	    5.8642
    2.9526 	   28.4608 	    3.0000 	   10.0000 	    6.2402
    3.1510 	   28.5515 	    3.0000 	   10.0000 	    6.6032
    2.9831 	   28.6485 	    3.0000 	   10.0000 	    6.9912
    2.7848 	   28.7448 	    3.0000 	   10.0000 	    7.3763
    3.0289 	   28.8408 	    3.0000 	   10.0000 	    7.7603
    2.9679 	   28.9373 	    3.0000 	   10.0000 	    8.1463
    3.1662 	   29.0353 	    3.0000 	   10.0000 	    8.5383
    3.0442 	   29.1290 	    3.0000 	   10.0000 	    8.9133
    3.2273 	   29.2245 	    3.0000 	   10.0000 	    9.2954
    3.1052 	   29.3215 	    3.0000 	   10.0000 	    9.6824
    3.1510 	   29.4130 	    3.0000 	   10.0000 	   10.0484
    3.1815 	   29.5115 	    3.0000 	   10.0000 	   10.4424
    3.0289 	   29.6063 	    3.0000 	   10.0000 	   10.8215
    3.1815 	   29.6995 	    3.0000 	   10.0000 	   11.1945
    3.0747 	   29.7950 	    3.0000 	   10.0000 	   11.5765
    3.1052 	   29.8893 	    3.0000 	   10.0000 	   11.9535
    2.8305 	   29.9833 	    3.0000 	   10.0000 	   12.3295
    3.3494 	   30.0798 	    3.0000 	   10.0000 	   12.7156
    3.1052 	   30.1753 	    3.0000 	   10.0000 	   13.0976
    3.2883 	   30.2708 	    3.0000 	   10.0000 	   13.4796
    3.2578 	   30.3715 	    3.0000 	   10.0000 	   13.8826
    3.3646 	   30.4658 	    3.0000 	   10.0000 	   14.2596
    3.0442 	   30.5608 	    3.0000 	   10.0000 	   14.6397
    3.1815 	   30.6585 	    3.0000 	   10.0000 	   15.0307
    3.1662 	   30.7548 	    3.0000 	   10.0000 	   15.4157
    3.2120 	   30.8490 	    3.0000 	   10.0000 	   15.7927
    3.1052 	   30.9430 	    3.0000 	   10.0000 	   16.1688
    3.1510 	   31.0365 	    3.0000 	   10.0000 	   16.5428
    3.2578 	   31.1318 	    3.0000 	   10.0000 	   16.9238
    3.2273 	   31.2263 	    3.0000 	   10.0000 	   17.3018
    3.1510 	   31.3258 	    3.0000 	   10.0000 	   17.6998
    3.1815 	   31.4230 	    3.0000 	   10.0000 	   18.0889
    3.0137 	   31.5178 	    3.0000 	   10.0000 	   18.4679
    3.1815 	   31.6210 	    3.0000 	   10.0000 	   18.8809
    3.2120 	   31.7205 	    3.0000 	   10.0000 	   19.2789
    3.1357 	   31.8183 	    3.0000 	   10.0000 	   19.6700
    3.0442 	   31.9158 	    3.0000 	   10.0000 	   20.0600
    3.0137 	   32.0118 	    3.0000 	   10.0000 	   20.4440
    3.1815 	   32.1070 	    3.0000 	   10.0000 	   20.8250
    3.0747 	   32.2005 	    3.0000 	   10.0000 	   21.1990
    3.2578 	   32.2968 	    3.0000 	   10.0000 	   21.5841
    3.1357 	   32.3938 	    3.0000 	   10.0000 	   21.9721
    3.1510 	   32.4890 	    3.0000 	   10.0000 	   22.3531
    2.9374 	   32.5895 	    3.0000 	   10.0000 	   22.7551
    3.1510 	   32.6835 	    3.0000 	   10.0000 	   23.1312
    3.2731 	   32.7825 	    3.0000 	   10.0000 	   23.5272
    3.1662 	   32.8815 	    3.0000 	   10.0000 	   23.9222
    3.1815 	   32.9825 	    3.0000 	   10.0000 	   24.3272
    3.3341 	   33.0780 	    3.0000 	   10.0000 	   24.7092
    3.2578 	   33.1738 	    3.0000 	   10.0000 	   25.0923
    3.3188 	   33.2695 	    3.0000 	   10.0000 	   25.4753
    3.3036 	   33.3698 	    3.0000 	   10.0000 	   25.8763
    3.1510 	   33.4653 	    3.0000 	   10.0000 	   26.2583
    3.2578 	   33.5590 	    3.0000 	   10.0000 	   26.6334
    3.1510 	   33.6548 	    3.0000 	   10.0000 	   27.0154
    3.0594 	   33.7483 	    3.0000 	   10.0000 	   27.3894
    3.0900 	   33.8455 	    3.0000 	   10.0000 	   27.7784
    3.0900 	   33.9425 	    3.0000 	   10.0000 	   28.1664
    3.1205 	   34.0452 	    3.0000 	   10.0000 	   28.5775
    3.0900 	   34.1425 	    3.0000 	   10.0000 	   28.9665
    3.0137 	   34.2390 	    3.0000 	   10.0000 	   29.3525
    3.0900 	   34.3415 	    3.0000 	   10.0000 	   29.7625
    3.1052 	   34.4398 	    3.0000 	   10.0000 	   30.1556
    3.0747 	   34.5373 	    3.0000 	   10.0000 	   30.5456
    3.1510 	   34.6390 	    3.0000 	   10.0000 	   30.9526
    3.0900 	   34.7338 	    3.0000 	   10.0000 	   31.3316
    3.0900 	   34.8348 	    3.0000 	   10.0000 	   31.7356
    2.9984 	   34.9328 	    3.0000 	   10.0000 	   32.1277
    3.0900 	   35.0318 	    3.0000 	   10.0000 	   32.5237
    3.0900 	   35.1325 	    3.0000 	   10.0000 	   32.9267
    3.2120 	   35.2323 	    3.0000 	   10.0000 	   33.3257
    3.2120 	   35.3328 	    3.0000 	   10.0000 	   33.7278
    3.1052 	   35.4338 	    3.0000 	   10.0000 	   34.1318
    3.1052 	   35.5312 	    3.0000 	   10.0000 	   34.5218
    3.0594 	   35.6323 	    3.0000 	   10.0000 	   34.9258
    2.9984 	   35.7318 	    3.0000 	   10.0000 	   35.3239
    3.0137 	   35.8298 	    3.0000 	   10.0000 	   35.7159
    3.0442 	   35.9278 	    3.0000 	   10.0000 	   36.1079
    3.1205 	   36.0258 	    3.0000 	   10.0000 	   36.4999
    2.9679 	   36.1300 	    3.0000 	   10.0000 	   36.9169
    3.0137 	   36.2260 	    3.0000 	   10.0000 	   37.3010
    3.2578 	   36.3290 	    3.0000 	   10.0000 	   37.7130
    3.0594 	   36.4285 	    3.0000 	   10.0000 	   38.1110
    3.1205 	   36.5325 	    3.0000 	   10.0000 	   38.5270
    2.9526 	   36.6310 	    3.0000 	   10.0000 	   38.9211
    3.0137 	   36.7290 	    3.0000 	   10.0000 	   39.3131
    2.9984 	   36.8273 	    3.0000 	   10.0000 	   39.7061
    2.9221 	   36.9295 	    3.0000 	   10.0000 	   40.1151
    3.1510 	   37.0312 	    3.0000 	   10.0000 	   40.5221
    3.0137 	   37.1370 	    3.0000 	   10.0000 	   40.9452
    3.2578 	   37.2348 	    3.0000 	   10.0000 	   41.3362
    3.0289 	   37.3408 	    3.0000 	   10.0000 	   41.7602
    2.9374 	   37.4398 	    3.0000 	   10.0000 	   42.1562
    3.0289 	   37.5393 	    3.0000 	   10.0000 	   42.5543
    2.8611 	   37.6390 	    3.0000 	   10.0000 	   42.9533
    3.1052 	   37.7388 	    3.0000 	   10.0000 	   43.3523
    3.0594 	   37.8425 	    3.0000 	   10.0000 	   43.7673
    3.1510 	   37.9453 	    3.0000 	   10.0000 	   44.1784
    3.0594 	   38.0460 	    3.0000 	   10.0000 	   44.5804
    3.0137 	   38.1503 	    3.0000 	   10.0000 	   44.9974
    2.9679 	   38.2508 	    3.0000 	   10.0000 	   45.3994
    3.0289 	   38.3535 	    3.0000 	   10.0000 	   45.8105
    3.0442 	   38.4570 	    3.0000 	   10.0000 	   46.2245
    2.8305 	   38.5595 	    3.0000 	   10.0000 	   46.6345
    2.9679 	   38.6658 	    3.0000 	   10.0000 	   47.0595
    2.9984 	   38.7650 	    3.0000 	   10.0000 	   47.4565
    3.1662 	   38.8663 	    3.0000 	   10.0000 	   47.8606
    2.9374 	   38.9668 	    3.0000 	   10.0000 	   48.2636
    2.9984 	   39.0728 	    3.0000 	   10.0000 	   48.6876
    3.1052 	   39.1773 	    3.0000 	   10.0000 	   49.1056
    3.1052 	   39.2835 	    3.0000 	   10.0000 	   49.5307
    3.0594 	   39.3880 	    3.0000 	   10.0000 	   49.9487
    2.9526 	   39.4920 	    3.0000 	   10.0000 	   50.3647
    2.9831 	   39.5950 	    3.0000 	   10.0000 	   50.7767
    2.9831 	   39.7008 	    3.0000 	   10.0000 	   51.1998
    3.0289 	   39.8078 	    3.0000 	   10.0000 	   51.6278
    2.8763 	   39.9158 	    3.0000 	   10.0000 	   52.0598
    2.8153 	   40.0203 	    3.0000 	   10.0000 	   52.4778
    3.0442 	   40.1270 	    3.0000 	   10.0000 	   52.9049
    2.7390 	   40.2288 	    3.0000 	   10.0000 	   53.3119
    3.0900 	   40.3333 	    3.0000 	   10.0000 	   53.7299
    3.0137 	   40.4350 	    3.0000 	   10.0000 	   54.1369
    3.0137 	   40.5400 	    3.0000 	   10.0000 	   54.5570
    3.0900 	   40.6450 	    3.0000 	   10.0000 	   54.9770
    3.0747 	   40.7473 	    3.0000 	   10.0000 	   55.3860
    3.0747 	   40.8530 	    3.0000 	   10.0000 	   55.8090
    2.9679 	   40.9583 	    3.0000 	   10.0000 	   56.2300
    3.0137 	   41.0628 	    3.0000 	   10.0000 	   56.6481
    2.9526 	   41.1693 	    3.0000 	   10.0000 	   57.0741
    3.0594 	   41.2743 	    3.0000 	   10.0000 	   57.4941
    3.0442 	   41.3808 	    3.0000 	   10.0000 	   57.9201
    3.0137 	   41.4858 	    3.0000 	   10.0000 	   58.3402
    3.0747 	   41.5933 	    3.0000 	   10.0000 	   58.7702
    3.1205 	   41.7003 	    3.0000 	   10.0000 	   59.1982
    3.0747 	   41.8063 	    3.0000 	   10.0000 	   59.6222
    3.1052 	   41.9148 	    3.0000 	   11.0000 	    0.0563
    3.0137 	   42.0190 	    3.0000 	   11.0000 	    0.4733
    2.9984 	   42.1278 	    3.0000 	   11.0000 	    0.9083
    3.0289 	   42.2328 	    3.0000 	   11.0000 	    1.3283
    3.0594 	   42.3428 	    3.0000 	   11.0000 	    1.7684
    2.9831 	   42.4493 	    3.0000 	   11.0000 	    2.1934
    3.2425 	   42.5553 	    3.0000 	   11.0000 	    2.6174
    2.9679 	   42.6660 	    3.0000 	   11.0000 	    3.0604
    3.1510 	   42.7703 	    3.0000 	   11.0000 	    3.4775
    2.9221 	   42.8745 	    3.0000 	   11.0000 	    3.8945
    2.9831 	   42.9833 	    3.0000 	   11.0000 	    4.3295
    2.8916 	   43.0933 	    3.0000 	   11.0000 	    4.7695
    3.0747 	   43.2023 	    3.0000 	   11.0000 	    5.2056
    3.0137 	   43.3110 	    3.0000 	   11.0000 	    5.6406
    3.0137 	   43.4190 	    3.0000 	   11.0000 	    6.0726
    2.9526 	   43.5235 	    3.0000 	   11.0000 	    6.4906
    2.9526 	   43.6303 	    3.0000 	   11.0000 	    6.9177
    3.0900 	   43.7408 	    3.0000 	   11.0000 	    7.3597
    3.1662 	   43.8493 	    3.0000 	   11.0000 	    7.7937
    2.7543 	   43.9585 	    3.0000 	   11.0000 	    8.2307
    3.0137 	   44.0633 	    3.0000 	   11.0000 	    8.6498
    2.9679 	   44.1780 	    3.0000 	   11.0000 	    9.1088
    2.9374 	   44.2865 	    3.0000 	   11.0000 	    9.5428
    2.9831 	   44.3993 	    3.0000 	   11.0000 	    9.9928
    3.0137 	   44.5070 	    3.0000 	   11.0000 	   10.4249
    2.9831 	   44.6125 	    3.0000 	   11.0000 	   10.8469
    3.0900 	   44.7225 	    3.0000 	   11.0000 	   11.2869
    3.0900 	   44.8290 	    3.0000 	   11.0000 	   11.7129
    3.0594 	   44.9388 	    3.0000 	   11.0000 	   12.1520
    3.0442 	   45.0480 	    3.0000 	   11.0000 	   12.5890
    2.9984 	   45.1568 	    3.0000 	   11.0000 	   13.0240
    3.1052 	   45.2648 	    3.0000 	   11.0000 	   13.4560
    2.9679 	   45.3790 	    3.0000 	   11.0000 	   13.9131
    2.9374 	   45.4875 	    3.0000 	   11.0000 	   14.3471
    3.0594 	   45.5990 	    3.0000 	   11.0000 	   14.7931
    2.9679 	   45.7075 	    3.0000 	   11.0000 	   15.2271
    3.0442 	   45.8148 	    3.0000 	   11.0000 	   15.6562
    2.9984 	   45.9235 	    3.0000 	   11.0000 	   16.0912
    3.0747 	   46.0353 	    3.0000 	   11.0000 	   16.5382
    3.0594 	   46.1460 	    3.0000 	   11.0000 	   16.9812
    2.8763 	   46.2593 	    3.0000 	   11.0000 	   17.4343
    2.8763 	   46.3685 	    3.0000 	   11.0000 	   17.8713
    2.6627 	   46.4810 	    3.0000 	   11.0000 	   18.3213
    2.9984 	   46.5895 	    3.0000 	   11.0000 	   18.7553
    2.9374 	   46.6998 	    3.0000 	   11.0000 	   19.1964
    3.1052 	   46.8073 	    3.0000 	   11.0000 	   19.6254
    2.8763 	   46.9160 	    3.0000 	   11.0000 	   20.0604
    2.9831 	   47.0298 	    3.0000 	   11.0000 	   20.5154
    2.9374 	   47.1410 	    3.0000 	   11.0000 	   20.9605
    2.9831 	   47.2488 	    3.0000 	   11.0000 	   21.3915
    2.7390 	   47.3573 	    3.0000 	   11.0000 	   21.8255
    2.7848 	   47.4678 	    3.0000 	   11.0000 	   22.2675
    2.8000 	   47.5745 	    3.0000 	   11.0000 	   22.6946
    2.7695 	   47.6808 	    3.0000 	   11.0000 	   23.1196
    2.7543 	   47.7910 	    3.0000 	   11.0000 	   23.5606
    2.6474 	   47.8985 	    3.0000 	   11.0000 	   23.9906
    2.6169 	   48.0100 	    3.0000 	   11.0000 	   24.4367
    2.6169 	   48.1178 	    3.0000 	   11.0000 	   24.8677
    2.6627 	   48.2260 	    3.0000 	   11.0000 	   25.3007
    2.4948 	   48.3430 	    3.0000 	   11.0000 	   25.7687
    2.5254 	   48.4523 	    3.0000 	   11.0000 	   26.2058
    2.4338 	   48.5605 	    3.0000 	   11.0000 	   26.6388
    2.5559 	   48.6713 	    3.0000 	   11.0000 	   27.0818
    2.4491 	   48.7803 	    3.0000 	   11.0000 	   27.5178
    2.3880 	   48.8898 	    3.0000 	   11.0000 	   27.9559
    2.4948 	   49.0008 	    3.0000 	   11.0000 	   28.3999
    2.4796 	   49.1095 	    3.0000 	   11.0000 	   28.8349
    2.3117 	   49.2205 	    3.0000 	   11.0000 	   29.2789
    2.4033 	   49.3343 	    3.0000 	   11.0000 	   29.7340
    2.2202 	   49.4490 	    3.0000 	   11.0000 	   30.1930
    2.3270 	   49.5615 	    3.0000 	   11.0000 	   30.6430
    2.2812 	   49.6735 	    3.0000 	   11.0000 	   31.0910
    2.2049 	   49.7855 	    3.0000 	   11.0000 	   31.5391
    2.1439 	   49.8995 	    3.0000 	   11.0000 	   31.9951
    2.2354 	   50.0100 	    3.0000 	   11.0000 	   32.4371
    2.1744 	   50.1220 	    3.0000 	   11.0000 	   32.8851
    2.3575 	   50.2338 	    3.0000 	   11.0000 	   33.3322
    2.2507 	   50.3455 	    3.0000 	   11.0000 	   33.7792
    2.2202 	   50.4630 	    3.0000 	   11.0000 	   34.2492
    2.0523 	   50.5733 	    3.0000 	   11.0000 	   34.6902
    1.9303 	   50.6885 	    3.0000 	   11.0000 	   35.1513
    2.2202 	   50.8043 	    3.0000 	   11.0000 	   35.6143
    2.0066 	   50.9215 	    3.0000 	   11.0000 	   36.0833
    2.0218 	   51.0380 	    3.0000 	   11.0000 	   36.5494
    1.9608 	   51.1540 	    3.0000 	   11.0000 	   37.0124
    1.9913 	   51.2660 	    3.0000 	   11.0000 	   37.4604
    1.9760 	   51.3818 	    3.0000 	   11.0000 	   37.9234
    1.9760 	   51.4993 	    3.0000 	   11.0000 	   38.3935
    1.9303 	   51.6110 	    3.0000 	   11.0000 	   38.8405
    1.8540 	   51.7305 	    3.0000 	   11.0000 	   39.3185
    1.8540 	   51.8455 	    3.0000 	   11.0000 	   39.7785
    1.9150 	   51.9603 	    3.0000 	   11.0000 	   40.2376
    1.8235 	   52.0723 	    3.0000 	   11.0000 	   40.6856
    1.8387 	   52.1853 	    3.0000 	   11.0000 	   41.1376
    1.9608 	   52.3008 	    3.0000 	   11.0000 	   41.5996
    1.7929 	   52.4168 	    3.0000 	   11.0000 	   42.0637
    1.8387 	   52.5333 	    3.0000 	   11.0000 	   42.5297
    1.7929 	   52.6468 	    3.0000 	   11.0000 	   42.9837
    1.8235 	   52.7605 	    3.0000 	   11.0000 	   43.4387
    1.8387 	   52.8758 	    3.0000 	   11.0000 	   43.8998
    1.7929 	   52.9895 	    3.0000 	   11.0000 	   44.3548
    1.6861 	   53.1043 	    3.0000 	   11.0000 	   44.8138
    1.7777 	   53.2183 	    3.0000 	   11.0000 	   45.2699
    1.7624 	   53.3320 	    3.0000 	   11.0000 	   45.7249
    1.7166 	   53.4503 	    3.0000 	   11.0000 	   46.1979
    1.6556 	   53.5653 	    3.0000 	   11.0000 	   46.6579
    1.8692 	   53.6860 	    3.0000 	   11.0000 	   47.1410
    1.7929 	   53.8025 	    3.0000 	   11.0000 	   47.6070
    1.5946 	   53.9168 	    3.0000 	   11.0000 	   48.0640
    1.7166 	   54.0388 	    3.0000 	   11.0000 	   48.5520
    1.7166 	   54.1578 	    3.0000 	   11.0000 	   49.0281
    1.7319 	   54.2775 	    3.0000 	   11.0000 	   49.5071
    1.7319 	   54.3955 	    3.0000 	   11.0000 	   49.9791
    1.7624 	   54.5173 	    3.0000 	   11.0000 	   50.4661
    1.5793 	   54.6293 	    3.0000 	   11.0000 	   50.9142
    1.6556 	   54.7440 	    3.0000 	   11.0000 	   51.3732
    1.7472 	   54.8578 	    3.0000 	   11.0000 	   51.8282
    1.5335 	   54.9728 	    3.0000 	   11.0000 	   52.2883
    1.5030 	   55.0895 	    3.0000 	   11.0000 	   52.7553
    1.5183 	   55.2075 	    3.0000 	   11.0000 	   53.2273
    1.4420 	   55.3203 	    3.0000 	   11.0000 	   53.6783
    1.5030 	   55.4418 	    3.0000 	   11.0000 	   54.1644
    1.5793 	   55.5573 	    3.0000 	   11.0000 	   54.6254
    1.6556 	   55.6745 	    3.0000 	   11.0000 	   55.0944
    1.5488 	   55.7900 	    3.0000 	   11.0000 	   55.5564
    1.6098 	   55.9038 	    3.0000 	   11.0000 	   56.0115
    1.3199 	   56.0233 	    3.0000 	   11.0000 	   56.4895
    1.3504 	   56.1385 	    3.0000 	   11.0000 	   56.9505
    1.4115 	   56.2573 	    3.0000 	   11.0000 	   57.4255
    1.4420 	   56.3740 	    3.0000 	   11.0000 	   57.8926
    1.4267 	   56.4928 	    3.0000 	   11.0000 	   58.3676
    1.3962 	   56.6090 	    3.0000 	   11.0000 	   58.8326
    1.3199 	   56.7313 	    3.0000 	   11.0000 	   59.3217
    1.6556 	   56.8510 	    3.0000 	   11.0000 	   59.8007
    1.3809 	   56.9710 	    3.0000 	   12.0000 	    0.2807
    1.4115 	   57.0915 	    3.0000 	   12.0000 	    0.7627
    1.3046 	   57.2100 	    3.0000 	   12.0000 	    1.2368
    1.3352 	   57.3328 	    3.0000 	   12.0000 	    1.7278
    1.2894 	   57.4518 	    3.0000 	   12.0000 	    2.2038
    1.2894 	   57.5730 	    3.0000 	   12.0000 	    2.6888
    1.3046 	   57.6915 	    3.0000 	   12.0000 	    3.1629
    1.3657 	   57.8085 	    3.0000 	   12.0000 	    3.6309
    1.3046 	   57.9228 	    3.0000 	   12.0000 	    4.0879
    1.3199 	   58.0415 	    3.0000 	   12.0000 	    4.5630
    1.2589 	   58.1633 	    3.0000 	   12.0000 	    5.0500
    1.2589 	   58.2883 	    3.0000 	   12.0000 	    5.5500
    1.4725 	   58.4040 	    3.0000 	   12.0000 	    6.0130
    1.1978 	   58.5255 	    3.0000 	   12.0000 	    6.4991
    1.3504 	   58.6433 	    3.0000 	   12.0000 	    6.9701
    1.2741 	   58.7650 	    3.0000 	   12.0000 	    7.4571
    1.1521 	   58.8840 	    3.0000 	   12.0000 	    7.9331
    1.3046 	   59.0020 	    3.0000 	   12.0000 	    8.4052
    1.2436 	   59.1218 	    3.0000 	   12.0000 	    8.8842
    1.2284 	   59.2443 	    3.0000 	   12.0000 	    9.3742
    1.1826 	   59.3633 	    3.0000 	   12.0000 	    9.8503
    1.1521 	   59.4810 	    3.0000 	   12.0000 	   10.3213
    1.0452 	   59.5993 	    3.0000 	   12.0000 	   10.7943
    1.2284 	   59.7165 	    3.0000 	   12.0000 	   11.2633
    0.9842 	   59.8353 	    3.0000 	   12.0000 	   11.7384
    1.2436 	   59.9565 	    3.0000 	   12.0000 	   12.2224
    1.2284 	   60.0768 	    3.0000 	   12.0000 	   12.7034
    1.1368 	   60.1983 	    3.0000 	   12.0000 	   13.1894
    1.0910 	   60.3195 	    3.0000 	   12.0000 	   13.6745
    1.1673 	   60.4423 	    3.0000 	   12.0000 	   14.1655
    1.1826 	   60.5650 	    3.0000 	   12.0000 	   14.6565
    1.0300 	   60.6918 	    3.0000 	   12.0000 	   15.1636
    0.6790 	   60.8120 	    3.0000 	   12.0000 	   15.6446
    1.1521 	   60.9310 	    3.0000 	   12.0000 	   16.1206
    1.0758 	   61.0530 	    3.0000 	   12.0000 	   16.6086
    1.0452 	   61.1748 	    3.0000 	   12.0000 	   17.0957
    1.1826 	   61.2973 	    3.0000 	   12.0000 	   17.5857
    1.1978 	   61.4170 	    3.0000 	   12.0000 	   18.0647
    1.1215 	   61.5430 	    3.0000 	   12.0000 	   18.5688
    1.1978 	   61.6650 	    3.0000 	   12.0000 	   19.0568
    1.0147 	   61.7933 	    3.0000 	   12.0000 	   19.5698
    1.0605 	   61.9123 	    3.0000 	   12.0000 	   20.0458
    0.9384 	   62.0388 	    3.0000 	   12.0000 	   20.5519
    1.0605 	   62.1595 	    3.0000 	   12.0000 	   21.0349
    1.0147 	   62.2848 	    3.0000 	   12.0000 	   21.5359
    1.0300 	   62.4050 	    3.0000 	   12.0000 	   22.0170
    0.9232 	   62.5278 	    3.0000 	   12.0000 	   22.5080
    0.9232 	   62.6465 	    3.0000 	   12.0000 	   22.9830
    0.9232 	   62.7675 	    3.0000 	   12.0000 	   23.4670
    0.6485 	   62.8873 	    3.0000 	   12.0000 	   23.9461
    0.9689 	   63.0148 	    3.0000 	   12.0000 	   24.4561
    0.9232 	   63.1388 	    3.0000 	   12.0000 	   24.9521
    0.8469 	   63.2628 	    3.0000 	   12.0000 	   25.4482
    0.9995 	   63.3830 	    3.0000 	   12.0000 	   25.9292
    0.8164 	   63.5088 	    3.0000 	   12.0000 	   26.4322
    0.9384 	   63.6295 	    3.0000 	   12.0000 	   26.9152
    1.0758 	   63.7488 	    3.0000 	   12.0000 	   27.3923
    1.0147 	   63.8718 	    3.0000 	   12.0000 	   27.8843
    0.8316 	   63.9903 	    3.0000 	   12.0000 	   28.3583
    0.8011 	   64.1123 	    3.0000 	   12.0000 	   28.8463
    0.9079 	   64.2343 	    3.0000 	   12.0000 	   29.3334
    0.6332 	   64.3548 	    3.0000 	   12.0000 	   29.8154
    0.8316 	   64.4825 	    3.0000 	   12.0000 	   30.3264
    0.9079 	   64.6055 	    3.0000 	   12.0000 	   30.8185
    0.9384 	   64.7308 	    3.0000 	   12.0000 	   31.3195
    0.7553 	   64.8577 	    3.0000 	   12.0000 	   31.8275
    0.8316 	   64.9800 	    3.0000 	   12.0000 	   32.3165
    0.8011 	   65.1063 	    3.0000 	   12.0000 	   32.8216
    0.8469 	   65.2273 	    3.0000 	   12.0000 	   33.3056
    0.6943 	   65.3553 	    3.0000 	   12.0000 	   33.8176
    0.7706 	   65.4820 	    3.0000 	   12.0000 	   34.3247
    0.8164 	   65.6095 	    3.0000 	   12.0000 	   34.8347
    0.6790 	   65.7353 	    3.0000 	   12.0000 	   35.3377
    0.7706 	   65.8593 	    3.0000 	   12.0000 	   35.8337
    0.8164 	   65.9850 	    3.0000 	   12.0000 	   36.3368
    0.7248 	   66.1128 	    3.0000 	   12.0000 	   36.8478
    0.7553 	   66.2380 	    3.0000 	   12.0000 	   37.3488
    0.7095 	   66.3640 	    3.0000 	   12.0000 	   37.8529
    0.7858 	   66.4880 	    3.0000 	   12.0000 	   38.3489
    0.6027 	   66.6170 	    3.0000 	   12.0000 	   38.8649
    0.7706 	   66.7408 	    3.0000 	   12.0000 	   39.3599
    0.6485 	   66.8670 	    3.0000 	   12.0000 	   39.8650
    0.5722 	   66.9895 	    3.0000 	   12.0000 	   40.3550
    0.5570 	   67.1150 	    3.0000 	   12.0000 	   40.8570
    0.6485 	   67.2433 	    3.0000 	   12.0000 	   41.3691
    0.5264 	   67.3695 	    3.0000 	   12.0000 	   41.8751
    0.4349 	   67.4918 	    3.0000 	   12.0000 	   42.3641
    0.5722 	   67.6190 	    3.0000 	   12.0000 	   42.8731
    0.2976 	   67.7453 	    3.0000 	   12.0000 	   43.3782
    0.6027 	   67.8745 	    3.0000 	   12.0000 	   43.8942
    0.4654 	   68.0083 	    3.0000 	   12.0000 	   44.4302
    0.6485 	   68.1360 	    3.0000 	   12.0000 	   44.9413
    0.5875 	   68.2613 	    3.0000 	   12.0000 	   45.4423
    0.6485 	   68.3883 	    3.0000 	   12.0000 	   45.9503
    0.6485 	   68.5163 	    3.0000 	   12.0000 	   46.4624
    0.5417 	   68.6495 	    3.0000 	   12.0000 	   46.9944
    0.5417 	   68.7755 	    3.0000 	   12.0000 	   47.4984
    0.4654 	   68.9008 	    3.0000 	   12.0000 	   47.9994
    0.4501 	   69.0283 	    3.0000 	   12.0000 	   48.5095
    0.5875 	   69.1555 	    3.0000 	   12.0000 	   49.0185
    0.5570 	   69.2833 	    3.0000 	   12.0000 	   49.5295
    0.3891 	   69.4073 	    3.0000 	   12.0000 	   50.0256
    0.3281 	   69.5410 	    3.0000 	   12.0000 	   50.5606
    0.4196 	   69.6675 	    3.0000 	   12.0000 	   51.0666
    0.4349 	   69.7943 	    3.0000 	   12.0000 	   51.5736
    0.4807 	   69.9185 	    3.0000 	   12.0000 	   52.0707
    0.4044 	   70.0425 	    3.0000 	   12.0000 	   52.5657
    0.3433 	   70.1753 	    3.0000 	   12.0000 	   53.0977
    0.4501 	   70.3033 	    3.0000 	   12.0000 	   53.6098
    0.3281 	   70.4350 	    3.0000 	   12.0000 	   54.1368
    0.4196 	   70.5623 	    3.0000 	   12.0000 	   54.6458
    0.1450 	   70.6913 	    3.0000 	   12.0000 	   55.1618
    0.4807 	   70.8223 	    3.0000 	   12.0000 	   55.6859
    0.3738 	   70.9482 	    3.0000 	   12.0000 	   56.1899
    0.2670 	   71.0818 	    3.0000 	   12.0000 	   56.7239
    0.3128 	   71.2053 	    3.0000 	   12.0000 	   57.2180
    0.2518 	   71.3385 	    3.0000 	   12.0000 	   57.7510
    0.1755 	   71.4650 	    3.0000 	   12.0000 	   58.2570
    0.1907 	   71.5960 	    3.0000 	   12.0000 	   58.7811
    0.2213 	   71.7303 	    3.0000 	   12.0000 	   59.3181
    0.1907 	   71.8577 	    3.0000 	   12.0000 	   59.8281
    0.2823 	   71.9850 	    3.0000 	   13.0000 	    0.3371
    0.3891 	   72.1143 	    3.0000 	   13.0000 	    0.8542
    0.3738 	   72.2415 	    3.0000 	   13.0000 	    1.3632
    0.1602 	   72.3720 	    3.0000 	   13.0000 	    1.8852
    0.3281 	   72.5043 	    3.0000 	   13.0000 	    2.4143
    0.1297 	   72.6338 	    3.0000 	   13.0000 	    2.9323
    0.1907 	   72.7645 	    3.0000 	   13.0000 	    3.4553
    0.0229 	   72.8970 	    3.0000 	   13.0000 	    3.9854
    0.1297 	   73.0240 	    3.0000 	   13.0000 	    4.4924
   -0.2365 	   73.1518 	    3.0000 	   13.0000 	    5.0034
    0.2976 	   73.2808 	    3.0000 	   13.0000 	    5.5194
    0.1602 	   73.4093 	    3.0000 	   13.0000 	    6.0335
    0.2518 	   73.5363 	    3.0000 	   13.0000 	    6.5415
    0.0687 	   73.6640 	    3.0000 	   13.0000 	    7.0525
    0.2518 	   73.7930 	    3.0000 	   13.0000 	    7.5686
    0.1297 	   73.9235 	    3.0000 	   13.0000 	    8.0906
    0.2823 	   74.0558 	    3.0000 	   13.0000 	    8.6196
    0.1297 	   74.1868 	    3.0000 	   13.0000 	    9.1437
    0.0687 	   74.3228 	    3.0000 	   13.0000 	    9.6877
   -0.1602 	   74.4523 	    3.0000 	   13.0000 	   10.2057
    0.3128 	   74.5900 	    3.0000 	   13.0000 	   10.7567
    0.2213 	   74.7205 	    3.0000 	   13.0000 	   11.2788
    0.1297 	   74.8543 	    3.0000 	   13.0000 	   11.8138
    0.1450 	   74.9845 	    3.0000 	   13.0000 	   12.3348
    0.1907 	   75.1160 	    3.0000 	   13.0000 	   12.8609
    0.3128 	   75.2418 	    3.0000 	   13.0000 	   13.3639
    0.4349 	   75.3717 	    3.0000 	   13.0000 	   13.8839
    0.1450 	   75.5053 	    3.0000 	   13.0000 	   14.4180
    0.1297 	   75.6370 	    3.0000 	   13.0000 	   14.9450
    0.0534 	   75.7700 	    3.0000 	   13.0000 	   15.4770
    0.1907 	   75.9015 	    3.0000 	   13.0000 	   16.0030
    0.2213 	   76.0328 	    3.0000 	   13.0000 	   16.5281
    0.0381 	   76.1638 	    3.0000 	   13.0000 	   17.0521
    0.2518 	   76.2965 	    3.0000 	   13.0000 	   17.5831
    0.1297 	   76.4305 	    3.0000 	   13.0000 	   18.1192
   -0.1144 	   76.5643 	    3.0000 	   13.0000 	   18.6542
    0.0687 	   76.7015 	    3.0000 	   13.0000 	   19.2032
    0.0534 	   76.8338 	    3.0000 	   13.0000 	   19.7323
    0.1755 	   76.9698 	    3.0000 	   13.0000 	   20.2763
    0.0992 	   77.1055 	    3.0000 	   13.0000 	   20.8183
    0.1755 	   77.2485 	    3.0000 	   13.0000 	   21.3913
    0.0381 	   77.3818 	    3.0000 	   13.0000 	   21.9234
    0.1144 	   77.5138 	    3.0000 	   13.0000 	   22.4514
    0.3433 	   77.6450 	    3.0000 	   13.0000 	   22.9764
    0.0687 	   77.7780 	    3.0000 	   13.0000 	   23.5085
    0.0076 	   77.9130 	    3.0000 	   13.0000 	   24.0485
    0.0381 	   78.0440 	    3.0000 	   13.0000 	   24.5725
    0.0992 	   78.1765 	    3.0000 	   13.0000 	   25.1026
    0.1297 	   78.3078 	    3.0000 	   13.0000 	   25.6276
    0.0839 	   78.3658 	    3.0000 	   13.0000 	   25.8596