File: instron/10_grey_3W15L_drag40_spd20.txt
Thayer School of Engineering        Instron 4442 Mechanical Testing System
6/28/2018 12:25:18 AM

  Force (N)	Extension (mm)	Not Used	Not Used	Not Used	     Hour	    Minute	    Second
    0.1144 	    0.3410 	    0.0000 	   25.0000 	   37.4227
    0.0839 	    0.4870 	    0.0000 	   25.0000 	   37.8607
    0.0076 	    0.6187 	    0.0000 	   25.0000 	   38.2558
    0.0687 	    0.7320 	    0.0000 	   25.0000 	   38.5958
   -0.0076 	    0.8800 	    0.0000 	   25.0000 	   39.0398
    0.1450 	    1.0340 	    0.0000 	   25.0000 	   39.5018
    0.0381 	    1.1497 	    0.0000 	   25.0000 	   39.8489
    0.0229 	    1.2360 	    0.0000 	   25.0000 	   40.1079
    0.0992 	    1.3327 	    0.0000 	   25.0000 	   40.3979
    0.0381 	    1.4200 	    0.0000 	   25.0000 	   40.6599
    0.0229 	    1.5090 	    0.0000 	   25.0000 	   40.9269
    0.1144 	    1.5930 	    0.0000 	   25.0000 	   41.1789
   -0.0687 	    1.6760 	    0.0000 	   25.0000 	   41.4280
    0.0687 	    1.7597 	    0.0000 	   25.0000 	   41.6790
   -0.0534 	    1.8460 	    0.0000 	   25.0000 	   41.9380
    0.1297 	    1.9360 	    0.0000 	   25.0000 	   42.2080
    0.0687 	    2.0333 	    0.0000 	   25.0000 	   42.5000
    0.0229 	    2.1173 	    0.0000 	   25.0000 	   42.7520
    0.1450 	    2.2040 	    0.0000 	   25.0000 	   43.0120
   -0.0229 	    2.2880 	    0.0000 	   25.0000 	   43.2641
    0.0687 	    2.3717 	    0.0000 	   25.0000 	   43.5151
    0.1450 	    2.4567 	    0.0000 	   25.0000 	   43.7701
    0.1602 	    2.5390 	    0.0000 	   25.0000 	   44.0171
   -0.0076 	    2.6247 	    0.0000 	   25.0000 	   44.2741
   -0.0076 	    2.7070 	    0.0000 	   25.0000 	   44.5211
    0.0687 	    2.7920 	    0.0000 	   25.0000 	   44.7761
    0.0992 	    2.8783 	    0.0000 	   25.0000 	   45.0352
    0.1450 	    2.9617 	    0.0000 	   25.0000 	   45.2852
    0.1144 	    3.0477 	    0.0000 	   25.0000 	   45.5432
    0.1907 	    3.1360 	    0.0000 	   25.0000 	   45.8082
    0.0839 	    3.2227 	    0.0000 	   25.0000 	   46.0682
   -0.0839 	    3.3080 	    0.0000 	   25.0000 	   46.3242
    0.2060 	    3.3940 	    0.0000 	   25.0000 	   46.5822
    0.3586 	    3.4800 	    0.0000 	   25.0000 	   46.8403
    0.2060 	    3.5653 	    0.0000 	   25.0000 	   47.0963
    0.0687 	    3.6517 	    0.0000 	   25.0000 	   47.3553
    0.1755 	    3.7393 	    0.0000 	   25.0000 	   47.6183
    0.2518 	    3.8267 	    0.0000 	   25.0000 	   47.8803
    0.2670 	    3.9130 	    0.0000 	   25.0000 	   48.1393
    0.3586 	    3.9980 	    0.0000 	   25.0000 	   48.3944
    0.3128 	    4.0867 	    0.0000 	   25.0000 	   48.6604
    0.3586 	    4.1730 	    0.0000 	   25.0000 	   48.9194
    0.4654 	    4.2593 	    0.0000 	   25.0000 	   49.1784
    0.2823 	    4.3437 	    0.0000 	   25.0000 	   49.4314
    0.4501 	    4.4307 	    0.0000 	   25.0000 	   49.6924
    0.3433 	    4.5160 	    0.0000 	   25.0000 	   49.9484
    0.4044 	    4.6040 	    0.0000 	   25.0000 	   50.2125
    0.3433 	    4.6923 	    0.0000 	   25.0000 	   50.4775
    0.2060 	    4.7807 	    0.0000 	   25.0000 	   50.7425
    0.4959 	    4.8690 	    0.0000 	   25.0000 	   51.0075
    0.4654 	    4.9563 	    0.0000 	   25.0000 	   51.2695
    0.4349 	    5.0427 	    0.0000 	   25.0000 	   51.5285
    0.5570 	    5.1287 	    0.0000 	   25.0000 	   51.7865
    0.4501 	    5.2153 	    0.0000 	   25.0000 	   52.0466
    0.5875 	    5.3020 	    0.0000 	   25.0000 	   52.3066
    0.5570 	    5.3913 	    0.0000 	   25.0000 	   52.5746
    0.6027 	    5.4793 	    0.0000 	   25.0000 	   52.8386
    0.4044 	    5.5690 	    0.0000 	   25.0000 	   53.1076
    0.6485 	    5.6567 	    0.0000 	   25.0000 	   53.3706
    0.6790 	    5.7447 	    0.0000 	   25.0000 	   53.6347
    0.7858 	    5.8337 	    0.0000 	   25.0000 	   53.9017
    0.7858 	    5.9227 	    0.0000 	   25.0000 	   54.1687
    0.7095 	    6.0103 	    0.0000 	   25.0000 	   54.4317
    0.9537 	    6.0997 	    0.0000 	   25.0000 	   54.6997
    0.8469 	    6.1883 	    0.0000 	   25.0000 	   54.9647
    0.9537 	    6.2773 	    0.0000 	   25.0000 	   55.2317
    1.0910 	    6.3640 	    0.0000 	   25.0000 	   55.4918
    0.9689 	    6.4540 	    0.0000 	   25.0000 	   55.7618
    1.0147 	    6.5463 	    0.0000 	   25.0000 	   56.0388
    1.2436 	    6.6343 	    0.0000 	   25.0000 	   56.3028
    1.1215 	    6.7227 	    0.0000 	   25.0000 	   56.5678
    0.9842 	    6.8113 	    0.0000 	   25.0000 	   56.8338
    1.0605 	    6.8970 	    0.0000 	   25.0000 	   57.0909
    1.1368 	    6.9767 	    0.0000 	   25.0000 	   57.3299
    1.3352 	    7.0643 	    0.0000 	   25.0000 	   57.5929
    1.1978 	    7.1523 	    0.0000 	   25.0000 	   57.8569
    1.3504 	    7.2463 	    0.0000 	   25.0000 	   58.1389
    1.3199 	    7.3350 	    0.0000 	   25.0000 	   58.4049
    1.1826 	    7.4243 	    0.0000 	   25.0000 	   58.6729
    1.2894 	    7.5123 	    0.0000 	   25.0000 	   58.9370
    1.2741 	    7.5983 	    0.0000 	   25.0000 	   59.1950
    1.4267 	    7.6897 	    0.0000 	   25.0000 	   59.4690
    1.2589 	    7.7793 	    0.0000 	   25.0000 	   59.7380
    1.4878 	    7.8773 	    0.0000 	   26.0000 	    0.0320
    1.3809 	    7.9637 	    0.0000 	   26.0000 	    0.2910
    1.3504 	    8.0550 	    0.0000 	   26.0000 	    0.5650
    1.3657 	    8.1450 	    0.0000 	   26.0000 	    0.8341
    1.4115 	    8.2360 	    0.0000 	   26.0000 	    1.1081
    1.5946 	    8.3243 	    0.0000 	   26.0000 	    1.3731
    1.5183 	    8.4110 	    0.0000 	   26.0000 	    1.6331
    1.4115 	    8.4977 	    0.0000 	   26.0000 	    1.8931
    1.5946 	    8.5873 	    0.0000 	   26.0000 	    2.1621
    1.5946 	    8.6817 	    0.0000 	   26.0000 	    2.4452
    1.6098 	    8.7723 	    0.0000 	   26.0000 	    2.7172
    1.2589 	    8.8643 	    0.0000 	   26.0000 	    2.9932
    1.2284 	    8.9533 	    0.0000 	   26.0000 	    3.2602
    1.5793 	    9.0430 	    0.0000 	   26.0000 	    3.5292
    1.3657 	    9.1337 	    0.0000 	   26.0000 	    3.8012
    1.7777 	    9.2263 	    0.0000 	   26.0000 	    4.0792
    1.6861 	    9.3080 	    0.0000 	   26.0000 	    4.3243
    1.6556 	    9.3973 	    0.0000 	   26.0000 	    4.5923
    1.7319 	    9.4883 	    0.0000 	   26.0000 	    4.8653
    1.7319 	    9.5797 	    0.0000 	   26.0000 	    5.1393
    1.7166 	    9.6713 	    0.0000 	   26.0000 	    5.4143
    1.6098 	    9.7637 	    0.0000 	   26.0000 	    5.6913
    1.7777 	    9.8553 	    0.0000 	   26.0000 	    5.9664
    1.8387 	    9.9490 	    0.0000 	   26.0000 	    6.2474
    1.7472 	   10.0427 	    0.0000 	   26.0000 	    6.5284
    1.7166 	   10.1330 	    0.0000 	   26.0000 	    6.7994
    1.7929 	   10.2267 	    0.0000 	   26.0000 	    7.0804
    1.8540 	   10.3163 	    0.0000 	   26.0000 	    7.3494
    1.9608 	   10.4093 	    0.0000 	   26.0000 	    7.6285
    1.9150 	   10.5013 	    0.0000 	   26.0000 	    7.9045
    1.9303 	   10.5923 	    0.0000 	   26.0000 	    8.1775
    2.1134 	   10.6760 	    0.0000 	   26.0000 	    8.4285
    1.8540 	   10.7587 	    0.0000 	   26.0000 	    8.6765
    1.9913 	   10.8507 	    0.0000 	   26.0000 	    8.9525
    1.9913 	   10.9443 	    0.0000 	   26.0000 	    9.2335
    1.9150 	   11.0367 	    0.0000 	   26.0000 	    9.5106
    1.9760 	   11.1297 	    0.0000 	   26.0000 	    9.7896
    2.0371 	   11.2243 	    0.0000 	   26.0000 	   10.0736
    2.1744 	   11.3183 	    0.0000 	   26.0000 	   10.3556
    1.9150 	   11.4133 	    0.0000 	   26.0000 	   10.6406
    2.2507 	   11.5077 	    0.0000 	   26.0000 	   10.9236
    2.0218 	   11.6010 	    0.0000 	   26.0000 	   11.2037
    2.2507 	   11.6953 	    0.0000 	   26.0000 	   11.4867
    2.0981 	   11.7870 	    0.0000 	   26.0000 	   11.7617
    2.0981 	   11.8793 	    0.0000 	   26.0000 	   12.0387
    2.1592 	   11.9723 	    0.0000 	   26.0000 	   12.3167
    2.1744 	   12.0660 	    0.0000 	   26.0000 	   12.5977
    2.1592 	   12.1600 	    0.0000 	   26.0000 	   12.8798
    2.1439 	   12.2533 	    0.0000 	   26.0000 	   13.1598
    2.3270 	   12.3463 	    0.0000 	   26.0000 	   13.4388
    1.9913 	   12.4387 	    0.0000 	   26.0000 	   13.7158
    2.2049 	   12.5350 	    0.0000 	   26.0000 	   14.0048
    2.2812 	   12.6293 	    0.0000 	   26.0000 	   14.2878
    2.3117 	   12.7213 	    0.0000 	   26.0000 	   14.5638
    2.3575 	   12.8117 	    0.0000 	   26.0000 	   14.8349
    2.3270 	   12.8950 	    0.0000 	   26.0000 	   15.0849
    2.3728 	   12.9857 	    0.0000 	   26.0000 	   15.3569
    2.4338 	   13.0817 	    0.0000 	   26.0000 	   15.6449
    2.3575 	   13.1763 	    0.0000 	   26.0000 	   15.9289
    2.3423 	   13.2703 	    0.0000 	   26.0000 	   16.2109
    2.4491 	   13.3653 	    0.0000 	   26.0000 	   16.4960
    2.4491 	   13.4520 	    0.0000 	   26.0000 	   16.7560
    2.4643 	   13.5417 	    0.0000 	   26.0000 	   17.0250
    2.4491 	   13.6367 	    0.0000 	   26.0000 	   17.3100
    2.6474 	   13.7320 	    0.0000 	   26.0000 	   17.5960
    2.4491 	   13.8297 	    0.0000 	   26.0000 	   17.8890
    2.6322 	   13.9287 	    0.0000 	   26.0000 	   18.1861
    2.5864 	   14.0260 	    0.0000 	   26.0000 	   18.4781
    2.4186 	   14.1220 	    0.0000 	   26.0000 	   18.7661
    2.5406 	   14.2167 	    0.0000 	   26.0000 	   19.0501
    2.6322 	   14.3130 	    0.0000 	   26.0000 	   19.3391
    2.7085 	   14.4093 	    0.0000 	   26.0000 	   19.6281
    2.6932 	   14.5077 	    0.0000 	   26.0000 	   19.9232
    2.6322 	   14.6060 	    0.0000 	   26.0000 	   20.2182
    2.7543 	   14.7037 	    0.0000 	   26.0000 	   20.5112
    2.7543 	   14.7997 	    0.0000 	   26.0000 	   20.7992
    2.6322 	   14.8963 	    0.0000 	   26.0000 	   21.0892
    2.6474 	   14.9917 	    0.0000 	   26.0000 	   21.3752
    2.8305 	   15.0887 	    0.0000 	   26.0000 	   21.6663
    2.4338 	   15.1860 	    0.0000 	   26.0000 	   21.9583
    2.8763 	   15.2847 	    0.0000 	   26.0000 	   22.2543
    2.9526 	   15.3807 	    0.0000 	   26.0000 	   22.5423
    2.8916 	   15.4750 	    0.0000 	   26.0000 	   22.8253
    2.9831 	   15.5733 	    0.0000 	   26.0000 	   23.1203
    2.9068 	   15.6680 	    0.0000 	   26.0000 	   23.4044
    2.9526 	   15.7640 	    0.0000 	   26.0000 	   23.6924
    3.0747 	   15.8603 	    0.0000 	   26.0000 	   23.9814
    2.8763 	   15.9573 	    0.0000 	   26.0000 	   24.2724
    3.0289 	   16.0537 	    0.0000 	   26.0000 	   24.5614
    2.9984 	   16.1490 	    0.0000 	   26.0000 	   24.8474
    3.0900 	   16.2350 	    0.0000 	   26.0000 	   25.1055
    3.0594 	   16.3340 	    0.0000 	   26.0000 	   25.4025
    2.9221 	   16.4287 	    0.0000 	   26.0000 	   25.6865
    3.0594 	   16.5273 	    0.0000 	   26.0000 	   25.9825
    3.0442 	   16.6180 	    0.0000 	   26.0000 	   26.2545
    3.2273 	   16.7137 	    0.0000 	   26.0000 	   26.5415
    3.0594 	   16.8087 	    0.0000 	   26.0000 	   26.8265
    3.0289 	   16.8957 	    0.0000 	   26.0000 	   27.0876
    3.1510 	   16.9863 	    0.0000 	   26.0000 	   27.3596
    3.1510 	   17.0813 	    0.0000 	   26.0000 	   27.6446
    3.1815 	   17.1793 	    0.0000 	   26.0000 	   27.9386
    3.1357 	   17.2797 	    0.0000 	   26.0000 	   28.2396
    3.3188 	   17.3777 	    0.0000 	   26.0000 	   28.5336
    3.2578 	   17.4747 	    0.0000 	   26.0000 	   28.8247
    3.1205 	   17.5730 	    0.0000 	   26.0000 	   29.1197
    3.2731 	   17.6733 	    0.0000 	   26.0000 	   29.4207
    3.2731 	   17.7733 	    0.0000 	   26.0000 	   29.7197
    3.4104 	   17.8717 	    0.0000 	   26.0000 	   30.0147
    3.2120 	   17.9677 	    0.0000 	   26.0000 	   30.3027
    3.3951 	   18.0680 	    0.0000 	   26.0000 	   30.6038
    3.3036 	   18.1673 	    0.0000 	   26.0000 	   30.9018
    3.3951 	   18.2663 	    0.0000 	   26.0000 	   31.1988
    3.4409 	   18.3620 	    0.0000 	   26.0000 	   31.4858
    3.2120 	   18.4617 	    0.0000 	   26.0000 	   31.7848
    3.3951 	   18.5617 	    0.0000 	   26.0000 	   32.0849
    3.4257 	   18.6610 	    0.0000 	   26.0000 	   32.3829
    3.3951 	   18.7537 	    0.0000 	   26.0000 	   32.6609
    3.6240 	   18.8510 	    0.0000 	   26.0000 	   32.9529
    3.6545 	   18.9530 	    0.0000 	   26.0000 	   33.2589
    3.6545 	   19.0537 	    0.0000 	   26.0000 	   33.5609
    3.6240 	   19.1540 	    0.0000 	   26.0000 	   33.8620
    3.5172 	   19.2570 	    0.0000 	   26.0000 	   34.1710
    3.6240 	   19.3567 	    0.0000 	   26.0000 	   34.4700
    3.6088 	   19.4520 	    0.0000 	   26.0000 	   34.7560
    3.6393 	   19.5530 	    0.0000 	   26.0000 	   35.0590
    3.2731 	   19.6533 	    0.0000 	   26.0000 	   35.3600
    3.6393 	   19.7537 	    0.0000 	   26.0000 	   35.6611
    3.7461 	   19.8570 	    0.0000 	   26.0000 	   35.9711
    3.8071 	   19.9550 	    0.0000 	   26.0000 	   36.2651
    3.6393 	   20.0520 	    0.0000 	   26.0000 	   36.5561
    3.8529 	   20.1537 	    0.0000 	   26.0000 	   36.8611
    3.7613 	   20.2563 	    0.0000 	   26.0000 	   37.1691
    3.7766 	   20.3583 	    0.0000 	   26.0000 	   37.4752
    3.7003 	   20.4620 	    0.0000 	   26.0000 	   37.7862
    3.8071 	   20.5670 	    0.0000 	   26.0000 	   38.1012
    3.8224 	   20.6670 	    0.0000 	   26.0000 	   38.4012
    3.9292 	   20.7677 	    0.0000 	   26.0000 	   38.7032
    3.7766 	   20.8690 	    0.0000 	   26.0000 	   39.0072
    4.0208 	   20.9713 	    0.0000 	   26.0000 	   39.3143
    4.0208 	   21.0667 	    0.0000 	   26.0000 	   39.6003
    4.0818 	   21.1560 	    0.0000 	   26.0000 	   39.8683
    4.1123 	   21.2470 	    0.0000 	   26.0000 	   40.1413
    4.0055 	   21.3390 	    0.0000 	   26.0000 	   40.4173
    3.9292 	   21.4410 	    0.0000 	   26.0000 	   40.7233
    4.0360 	   21.5397 	    0.0000 	   26.0000 	   41.0194
    4.0360 	   21.6400 	    0.0000 	   26.0000 	   41.3204
    4.0055 	   21.7417 	    0.0000 	   26.0000 	   41.6254
    4.0818 	   21.8380 	    0.0000 	   26.0000 	   41.9144
    4.3259 	   21.9437 	    0.0000 	   26.0000 	   42.2314
    4.2344 	   22.0460 	    0.0000 	   26.0000 	   42.5384
    4.1733 	   22.1467 	    0.0000 	   26.0000 	   42.8405
    4.2496 	   22.2473 	    0.0000 	   26.0000 	   43.1425
    4.1581 	   22.3437 	    0.0000 	   26.0000 	   43.4315
    4.2649 	   22.4367 	    0.0000 	   26.0000 	   43.7105
    4.2802 	   22.5310 	    0.0000 	   26.0000 	   43.9935
    4.3717 	   22.6330 	    0.0000 	   26.0000 	   44.2995
    4.4480 	   22.7350 	    0.0000 	   26.0000 	   44.6056
    4.2802 	   22.8310 	    0.0000 	   26.0000 	   44.8936
    4.3565 	   22.9253 	    0.0000 	   26.0000 	   45.1766
    4.4327 	   23.0393 	    0.0000 	   26.0000 	   45.5186
    4.3870 	   23.1370 	    0.0000 	   26.0000 	   45.8116
    4.4938 	   23.2403 	    0.0000 	   26.0000 	   46.1217
    4.6311 	   23.3427 	    0.0000 	   26.0000 	   46.4287
    4.5853 	   23.4460 	    0.0000 	   26.0000 	   46.7387
    4.4938 	   23.5520 	    0.0000 	   26.0000 	   47.0567
    4.4938 	   23.6523 	    0.0000 	   26.0000 	   47.3567
    4.5701 	   23.7523 	    0.0000 	   26.0000 	   47.6567
    4.5548 	   23.8560 	    0.0000 	   26.0000 	   47.9668
    4.7379 	   23.9483 	    0.0000 	   26.0000 	   48.2448
    4.8142 	   24.0533 	    0.0000 	   26.0000 	   48.5598
    4.7684 	   24.1583 	    0.0000 	   26.0000 	   48.8748
    4.8295 	   24.2613 	    0.0000 	   26.0000 	   49.1838
    4.9668 	   24.3553 	    0.0000 	   26.0000 	   49.4658
    4.8142 	   24.4500 	    0.0000 	   26.0000 	   49.7499
    4.8142 	   24.5497 	    0.0000 	   26.0000 	   50.0489
    4.8905 	   24.6510 	    0.0000 	   26.0000 	   50.3529
    4.7684 	   24.7580 	    0.0000 	   26.0000 	   50.6739
    4.9363 	   24.8657 	    0.0000 	   26.0000 	   50.9969
    4.9210 	   24.9713 	    0.0000 	   26.0000 	   51.3139
    4.9210 	   25.0793 	    0.0000 	   26.0000 	   51.6380
    5.0126 	   25.1850 	    0.0000 	   26.0000 	   51.9550
    5.0431 	   25.2850 	    0.0000 	   26.0000 	   52.2550
    5.0584 	   25.3907 	    0.0000 	   26.0000 	   52.5720
    4.9668 	   25.4960 	    0.0000 	   26.0000 	   52.8880
    5.1041 	   25.6023 	    0.0000 	   26.0000 	   53.2071
    5.1194 	   25.7090 	    0.0000 	   26.0000 	   53.5271
    5.0584 	   25.8130 	    0.0000 	   26.0000 	   53.8391
    5.2873 	   25.9193 	    0.0000 	   26.0000 	   54.1581
    5.2873 	   26.0253 	    0.0000 	   26.0000 	   54.4761
    5.1347 	   26.1317 	    0.0000 	   26.0000 	   54.7952
    5.2567 	   26.2373 	    0.0000 	   26.0000 	   55.1122
    5.2415 	   26.3473 	    0.0000 	   26.0000 	   55.4422
    5.3483 	   26.4537 	    0.0000 	   26.0000 	   55.7612
    5.4704 	   26.5600 	    0.0000 	   26.0000 	   56.0802
    5.2567 	   26.6663 	    0.0000 	   26.0000 	   56.3992
    5.3941 	   26.7727 	    0.0000 	   26.0000 	   56.7183
    5.4704 	   26.8793 	    0.0000 	   26.0000 	   57.0383
    5.5161 	   26.9880 	    0.0000 	   26.0000 	   57.3643
    5.4398 	   27.0960 	    0.0000 	   26.0000 	   57.6883
    5.6687 	   27.2023 	    0.0000 	   26.0000 	   58.0073
    5.6229 	   27.3077 	    0.0000 	   26.0000 	   58.3234
    5.6077 	   27.4137 	    0.0000 	   26.0000 	   58.6414
    5.6687 	   27.5170 	    0.0000 	   26.0000 	   58.9514
    5.6992 	   27.6153 	    0.0000 	   26.0000 	   59.2464
    5.7450 	   27.7127 	    0.0000 	   26.0000 	   59.5384
    5.6382 	   27.8187 	    0.0000 	   26.0000 	   59.8564
    5.7450 	   27.9253 	    0.0000 	   27.0000 	    0.1765
    5.8061 	   28.0337 	    0.0000 	   27.0000 	    0.5015
    5.9129 	   28.1407 	    0.0000 	   27.0000 	    0.8225
    5.8824 	   28.2413 	    0.0000 	   27.0000 	    1.1245
    6.0349 	   28.3363 	    0.0000 	   27.0000 	    1.4095
    5.7450 	   28.4350 	    0.0000 	   27.0000 	    1.7055
    6.1570 	   28.5460 	    0.0000 	   27.0000 	    2.0386
    6.0502 	   28.6517 	    0.0000 	   27.0000 	    2.3556
    6.1265 	   28.7600 	    0.0000 	   27.0000 	    2.6806
    6.0960 	   28.8573 	    0.0000 	   27.0000 	    2.9726
    6.1875 	   28.9640 	    0.0000 	   27.0000 	    3.2926
    6.2333 	   29.0687 	    0.0000 	   27.0000 	    3.6067
    6.2791 	   29.1673 	    0.0000 	   27.0000 	    3.9027
    6.3096 	   29.2687 	    0.0000 	   27.0000 	    4.2067
    6.4775 	   29.3767 	    0.0000 	   27.0000 	    4.5307
    6.4164 	   29.4780 	    0.0000 	   27.0000 	    4.8337
    6.4775 	   29.5770 	    0.0000 	   27.0000 	    5.1307
    6.4622 	   29.6850 	    0.0000 	   27.0000 	    5.4548
    6.5995 	   29.7893 	    0.0000 	   27.0000 	    5.7678
    6.4622 	   29.8893 	    0.0000 	   27.0000 	    6.0678
    6.3859 	   29.9980 	    0.0000 	   27.0000 	    6.3938
    6.5690 	   30.1043 	    0.0000 	   27.0000 	    6.7128
    6.7063 	   30.2013 	    0.0000 	   27.0000 	    7.0038
    6.7979 	   30.3120 	    0.0000 	   27.0000 	    7.3359
    6.7674 	   30.4213 	    0.0000 	   27.0000 	    7.6639
    6.7826 	   30.5203 	    0.0000 	   27.0000 	    7.9609
    7.0268 	   30.6190 	    0.0000 	   27.0000 	    8.2569
    6.9810 	   30.7307 	    0.0000 	   27.0000 	    8.5919
    6.8894 	   30.8313 	    0.0000 	   27.0000 	    8.8940
    7.0268 	   30.9337 	    0.0000 	   27.0000 	    9.2010
    7.1183 	   31.0443 	    0.0000 	   27.0000 	    9.5330
    7.0268 	   31.1430 	    0.0000 	   27.0000 	    9.8290
    7.1489 	   31.2453 	    0.0000 	   27.0000 	   10.1360
    7.2862 	   31.3463 	    0.0000 	   27.0000 	   10.4390
    7.4998 	   31.4440 	    0.0000 	   27.0000 	   10.7321
    7.4693 	   31.5433 	    0.0000 	   27.0000 	   11.0301
    7.4540 	   31.6423 	    0.0000 	   27.0000 	   11.3271
    7.4998 	   31.7417 	    0.0000 	   27.0000 	   11.6251
    7.3930 	   31.8430 	    0.0000 	   27.0000 	   11.9291
    7.6982 	   31.9530 	    0.0000 	   27.0000 	   12.2591
    7.6829 	   32.0633 	    0.0000 	   27.0000 	   12.5902
    7.6982 	   32.1687 	    0.0000 	   27.0000 	   12.9062
    7.6982 	   32.2787 	    0.0000 	   27.0000 	   13.2362
    7.7440 	   32.3897 	    0.0000 	   27.0000 	   13.5692
    7.9423 	   32.5010 	    0.0000 	   27.0000 	   13.9032
    7.9881 	   32.6133 	    0.0000 	   27.0000 	   14.2403
    8.2017 	   32.7227 	    0.0000 	   27.0000 	   14.5683
    8.2475 	   32.8350 	    0.0000 	   27.0000 	   14.9053
    8.2170 	   32.9443 	    0.0000 	   27.0000 	   15.2333
    8.3085 	   33.0543 	    0.0000 	   27.0000 	   15.5633
    8.3391 	   33.1647 	    0.0000 	   27.0000 	   15.8944
    8.1712 	   33.2760 	    0.0000 	   27.0000 	   16.2284
    8.5527 	   33.3870 	    0.0000 	   27.0000 	   16.5614
    8.4916 	   33.4883 	    0.0000 	   27.0000 	   16.8654
    8.5832 	   33.5883 	    0.0000 	   27.0000 	   17.1654
    8.6290 	   33.6947 	    0.0000 	   27.0000 	   17.4844
    8.9647 	   33.8010 	    0.0000 	   27.0000 	   17.8035
    8.8579 	   33.9143 	    0.0000 	   27.0000 	   18.1435
    8.9647 	   34.0270 	    0.0000 	   27.0000 	   18.4815
    9.2088 	   34.1397 	    0.0000 	   27.0000 	   18.8195
    9.1478 	   34.2513 	    0.0000 	   27.0000 	   19.1545
    9.4072 	   34.3590 	    0.0000 	   27.0000 	   19.4776
    9.3309 	   34.4683 	    0.0000 	   27.0000 	   19.8056
    9.4072 	   34.5807 	    0.0000 	   27.0000 	   20.1426
    9.6208 	   34.6820 	    0.0000 	   27.0000 	   20.4466
    9.7276 	   34.7830 	    0.0000 	   27.0000 	   20.7496
    9.9260 	   34.8957 	    0.0000 	   27.0000 	   21.0877
    9.8802 	   35.0070 	    0.0000 	   27.0000 	   21.4217
    9.9107 	   35.1350 	    0.0000 	   27.0000 	   21.8057
   10.0786 	   35.2480 	    0.0000 	   27.0000 	   22.1437
   10.3227 	   35.3597 	    0.0000 	   27.0000 	   22.4787
   10.4753 	   35.4707 	    0.0000 	   27.0000 	   22.8118
   10.6279 	   35.5730 	    0.0000 	   27.0000 	   23.1188
   10.5364 	   35.6777 	    0.0000 	   27.0000 	   23.4328
   10.8110 	   35.7773 	    0.0000 	   27.0000 	   23.7318
   10.9026 	   35.8870 	    0.0000 	   27.0000 	   24.0608
   11.1925 	   35.9887 	    0.0000 	   27.0000 	   24.3648
   11.2078 	   36.0893 	    0.0000 	   27.0000 	   24.6679
   11.3756 	   36.1937 	    0.0000 	   27.0000 	   24.9809
   11.3451 	   36.2933 	    0.0000 	   27.0000 	   25.2799
   11.7571 	   36.3990 	    0.0000 	   27.0000 	   25.5969
   11.7266 	   36.5043 	    0.0000 	   27.0000 	   25.9129
   12.0775 	   36.6117 	    0.0000 	   27.0000 	   26.2349
   11.9554 	   36.7147 	    0.0000 	   27.0000 	   26.5440
   12.1843 	   36.8200 	    0.0000 	   27.0000 	   26.8600
   12.4285 	   36.9327 	    0.0000 	   27.0000 	   27.1980
   12.5505 	   37.0490 	    0.0000 	   27.0000 	   27.5470
   12.7642 	   37.1617 	    0.0000 	   27.0000 	   27.8850
   12.7947 	   37.2760 	    0.0000 	   27.0000 	   28.2281
   12.8252 	   37.3900 	    0.0000 	   27.0000 	   28.5701
   13.1609 	   37.5010 	    0.0000 	   27.0000 	   28.9031
   13.3898 	   37.6037 	    0.0000 	   27.0000 	   29.2111
   13.7560 	   37.7093 	    0.0000 	   27.0000 	   29.5281
   13.8323 	   37.8170 	    0.0000 	   27.0000 	   29.8512
   14.0917 	   37.9333 	    0.0000 	   27.0000 	   30.2002
   14.5495 	   38.0433 	    0.0000 	   27.0000 	   30.5302
   14.4121 	   38.1583 	    0.0000 	   27.0000 	   30.8752
   14.6410 	   38.2733 	    0.0000 	   27.0000 	   31.2202
   14.7173 	   38.3857 	    0.0000 	   27.0000 	   31.5573
   14.8852 	   38.5000 	    0.0000 	   27.0000 	   31.9003
   15.0835 	   38.6187 	    0.0000 	   27.0000 	   32.2563
   15.4803 	   38.7310 	    0.0000 	   27.0000 	   32.5933
   15.4955 	   38.8467 	    0.0000 	   27.0000 	   32.9403
   15.9838 	   38.9600 	    0.0000 	   27.0000 	   33.2803
   16.1364 	   39.0680 	    0.0000 	   27.0000 	   33.6044
   16.3958 	   39.1707 	    0.0000 	   27.0000 	   33.9124
   16.5331 	   39.2800 	    0.0000 	   27.0000 	   34.2404
   16.9299 	   39.3853 	    0.0000 	   27.0000 	   34.5564
   17.2808 	   39.4977 	    0.0000 	   27.0000 	   34.8934
   17.5555 	   39.6060 	    0.0000 	   27.0000 	   35.2185
   17.6776 	   39.7230 	    0.0000 	   27.0000 	   35.5695
   17.0977 	   39.8320 	    0.0000 	   27.0000 	   35.8965
   17.3419 	   39.9517 	    0.0000 	   27.0000 	   36.2555
   17.2351 	   40.0583 	    0.0000 	   27.0000 	   36.5755
   17.0977 	   40.1713 	    0.0000 	   27.0000 	   36.9146
   16.8841 	   40.2817 	    0.0000 	   27.0000 	   37.2456
   16.9146 	   40.3890 	    0.0000 	   27.0000 	   37.5676
   16.9146 	   40.4933 	    0.0000 	   27.0000 	   37.8806
   16.9451 	   40.6077 	    0.0000 	   27.0000 	   38.2236
   16.5331 	   40.7190 	    0.0000 	   27.0000 	   38.5577
   16.6400 	   40.8360 	    0.0000 	   27.0000 	   38.9087
   16.6705 	   40.9470 	    0.0000 	   27.0000 	   39.2417
   16.5331 	   41.0653 	    0.0000 	   27.0000 	   39.5967
   16.6705 	   41.1703 	    0.0000 	   27.0000 	   39.9107
   16.6705 	   41.2850 	    0.0000 	   27.0000 	   40.2547
   16.5484 	   41.4027 	    0.0000 	   27.0000 	   40.6078
   16.4111 	   41.5187 	    0.0000 	   27.0000 	   40.9558
   16.3348 	   41.6353 	    0.0000 	   27.0000 	   41.3058
   16.2737 	   41.7523 	    0.0000 	   27.0000 	   41.6568
   16.4263 	   41.8627 	    0.0000 	   27.0000 	   41.9879
   16.4569 	   41.9770 	    0.0000 	   27.0000 	   42.3309
   16.2890 	   42.0830 	    0.0000 	   27.0000 	   42.6489
   16.2432 	   42.1867 	    0.0000 	   27.0000 	   42.9599
   16.1822 	   42.2910 	    0.0000 	   27.0000 	   43.2719
   16.3195 	   42.3953 	    0.0000 	   27.0000 	   43.5859
   16.2127 	   42.5007 	    0.0000 	   27.0000 	   43.9020
   16.1669 	   42.6053 	    0.0000 	   27.0000 	   44.2160
   16.0906 	   42.7107 	    0.0000 	   27.0000 	   44.5310
   16.1517 	   42.8163 	    0.0000 	   27.0000 	   44.8490
   16.0143 	   42.9247 	    0.0000 	   27.0000 	   45.1740
   15.9228 	   43.0440 	    0.0000 	   27.0000 	   45.5321
   15.9991 	   43.1627 	    0.0000 	   27.0000 	   45.8881
   16.0143 	   43.2850 	    0.0000 	   27.0000 	   46.2551
   15.9991 	   43.3927 	    0.0000 	   27.0000 	   46.5781
   16.1059 	   43.4973 	    0.0000 	   27.0000 	   46.8921
   15.9075 	   43.6040 	    0.0000 	   27.0000 	   47.2121
   15.9380 	   43.7097 	    0.0000 	   27.0000 	   47.5292
   15.6939 	   43.8167 	    0.0000 	   27.0000 	   47.8502
   15.8770 	   43.9277 	    0.0000 	   27.0000 	   48.1832
   15.8618 	   44.0393 	    0.0000 	   27.0000 	   48.5182
   15.9380 	   44.1467 	    0.0000 	   27.0000 	   48.8402
   15.6786 	   44.2583 	    0.0000 	   27.0000 	   49.1753
   15.8465 	   44.3740 	    0.0000 	   27.0000 	   49.5223
   15.8160 	   44.4850 	    0.0000 	   27.0000 	   49.8553
   15.7702 	   44.5970 	    0.0000 	   27.0000 	   50.1913
   15.6786 	   44.7163 	    0.0000 	   27.0000 	   50.5493
   15.7092 	   44.8370 	    0.0000 	   27.0000 	   50.9114
   15.8770 	   44.9567 	    0.0000 	   27.0000 	   51.2704
   15.7549 	   45.0677 	    0.0000 	   27.0000 	   51.6034
   15.8770 	   45.1837 	    0.0000 	   27.0000 	   51.9514
   15.6786 	   45.3020 	    0.0000 	   27.0000 	   52.3064
   15.8618 	   45.4217 	    0.0000 	   27.0000 	   52.6655
   15.6329 	   45.5367 	    0.0000 	   27.0000 	   53.0105
   15.6786 	   45.6450 	    0.0000 	   27.0000 	   53.3355
   15.6939 	   45.7633 	    0.0000 	   27.0000 	   53.6905
   15.7397 	   45.8803 	    0.0000 	   27.0000 	   54.0415
   15.5261 	   45.9920 	    0.0000 	   27.0000 	   54.3766
   15.6024 	   46.1013 	    0.0000 	   27.0000 	   54.7046
   15.5566 	   46.2083 	    0.0000 	   27.0000 	   55.0256
   15.6481 	   46.3160 	    0.0000 	   27.0000 	   55.3486
   15.5718 	   46.4250 	    0.0000 	   27.0000 	   55.6756
   15.4803 	   46.5323 	    0.0000 	   27.0000 	   55.9977
   15.6481 	   46.6403 	    0.0000 	   27.0000 	   56.3217
   15.3887 	   46.7507 	    0.0000 	   27.0000 	   56.6527
   15.6634 	   46.8647 	    0.0000 	   27.0000 	   56.9947
   15.6024 	   46.9827 	    0.0000 	   27.0000 	   57.3477
   15.6176 	   47.0920 	    0.0000 	   27.0000 	   57.6757
   15.5871 	   47.2000 	    0.0000 	   27.0000 	   57.9998
   15.3887 	   47.3137 	    0.0000 	   27.0000 	   58.3408
   15.4803 	   47.4247 	    0.0000 	   27.0000 	   58.6738
   15.4955 	   47.5380 	    0.0000 	   27.0000 	   59.0138
   15.4040 	   47.6533 	    0.0000 	   27.0000 	   59.3598
   15.3887 	   47.7660 	    0.0000 	   27.0000 	   59.6979
   15.4345 	   47.8817 	    0.0000 	   28.0000 	    0.0449
   15.3277 	   47.9910 	    0.0000 	   28.0000 	    0.3729
   15.4345 	   48.1070 	    0.0000 	   28.0000 	    0.7209
   15.4803 	   48.2203 	    0.0000 	   28.0000 	    1.0609
   15.3429 	   48.3317 	    0.0000 	   28.0000 	    1.3950
   15.3582 	   48.4500 	    0.0000 	   28.0000 	    1.7500
   15.2972 	   48.5693 	    0.0000 	   28.0000 	    2.1080
   15.4040 	   48.6840 	    0.0000 	   28.0000 	    2.4520
   15.3124 	   48.8020 	    0.0000 	   28.0000 	    2.8060
   15.4650 	   48.9220 	    0.0000 	   28.0000 	    3.1661
   15.3124 	   49.0457 	    0.0000 	   28.0000 	    3.5371
   15.1904 	   49.1650 	    0.0000 	   28.0000 	    3.8951
   15.4040 	   49.2753 	    0.0000 	   28.0000 	    4.2261
   15.2514 	   49.3873 	    0.0000 	   28.0000 	    4.5621
   15.3582 	   49.4983 	    0.0000 	   28.0000 	    4.8952
   15.2514 	   49.6097 	    0.0000 	   28.0000 	    5.2292
   15.3124 	   49.7207 	    0.0000 	   28.0000 	    5.5622
   15.3887 	   49.8407 	    0.0000 	   28.0000 	    5.9222
   15.2361 	   49.9623 	    0.0000 	   28.0000 	    6.2872
   15.3887 	   50.0790 	    0.0000 	   28.0000 	    6.6373
   15.1293 	   50.1947 	    0.0000 	   28.0000 	    6.9843
   15.3124 	   50.3103 	    0.0000 	   28.0000 	    7.3313
   15.2209 	   50.4323 	    0.0000 	   28.0000 	    7.6973
   15.2667 	   50.5503 	    0.0000 	   28.0000 	    8.0513
   15.1751 	   50.6723 	    0.0000 	   28.0000 	    8.4174
   15.1446 	   50.7910 	    0.0000 	   28.0000 	    8.7734
   15.1751 	   50.9020 	    0.0000 	   28.0000 	    9.1064
   14.9004 	   51.0153 	    0.0000 	   28.0000 	    9.4464
   15.1904 	   51.1347 	    0.0000 	   28.0000 	    9.8044
   15.2972 	   51.2533 	    0.0000 	   28.0000 	   10.1605
   15.2209 	   51.3723 	    0.0000 	   28.0000 	   10.5175
   15.2819 	   51.4900 	    0.0000 	   28.0000 	   10.8705
   15.2056 	   51.6077 	    0.0000 	   28.0000 	   11.2235
   15.1141 	   51.7213 	    0.0000 	   28.0000 	   11.5645
   15.1751 	   51.8430 	    0.0000 	   28.0000 	   11.9296
   15.1293 	   51.9560 	    0.0000 	   28.0000 	   12.2686
   15.0225 	   52.0700 	    0.0000 	   28.0000 	   12.6106
   14.8852 	   52.1893 	    0.0000 	   28.0000 	   12.9686
   15.1751 	   52.3073 	    0.0000 	   28.0000 	   13.3226
   15.0835 	   52.4223 	    0.0000 	   28.0000 	   13.6677
   15.1446 	   52.5347 	    0.0000 	   28.0000 	   14.0047
   15.0530 	   52.6517 	    0.0000 	   28.0000 	   14.3557
   15.0225 	   52.7777 	    0.0000 	   28.0000 	   14.7327
   14.9615 	   52.8930 	    0.0000 	   28.0000 	   15.0787
   15.1446 	   53.0093 	    0.0000 	   28.0000 	   15.4278
   14.9310 	   53.1253 	    0.0000 	   28.0000 	   15.7758
   14.7326 	   53.2477 	    0.0000 	   28.0000 	   16.1428
   15.0835 	   53.3723 	    0.0000 	   28.0000 	   16.5168
   14.9462 	   53.4970 	    0.0000 	   28.0000 	   16.8908
   14.9920 	   53.6147 	    0.0000 	   28.0000 	   17.2439
   14.9462 	   53.7313 	    0.0000 	   28.0000 	   17.5939
   15.1598 	   53.8453 	    0.0000 	   28.0000 	   17.9359
   15.2056 	   53.9587 	    0.0000 	   28.0000 	   18.2749
   14.9767 	   54.0740 	    0.0000 	   28.0000 	   18.6219
   14.9157 	   54.1880 	    0.0000 	   28.0000 	   18.9640
   15.1446 	   54.3027 	    0.0000 	   28.0000 	   19.3080
   14.9615 	   54.4163 	    0.0000 	   28.0000 	   19.6490
   14.9615 	   54.5340 	    0.0000 	   28.0000 	   20.0020
   14.9462 	   54.6470 	    0.0000 	   28.0000 	   20.3410
   14.9767 	   54.7627 	    0.0000 	   28.0000 	   20.6881
   15.1141 	   54.8767 	    0.0000 	   28.0000 	   21.0301
   15.0530 	   54.9917 	    0.0000 	   28.0000 	   21.3741
   14.9462 	   55.1057 	    0.0000 	   28.0000 	   21.7171
   14.9615 	   55.2203 	    0.0000 	   28.0000 	   22.0611
   14.8394 	   55.3343 	    0.0000 	   28.0000 	   22.4032
   14.9157 	   55.4503 	    0.0000 	   28.0000 	   22.7512
   15.0530 	   55.5663 	    0.0000 	   28.0000 	   23.0992
   15.0683 	   55.6823 	    0.0000 	   28.0000 	   23.4472
   15.0378 	   55.7993 	    0.0000 	   28.0000 	   23.7982
   15.0225 	   55.9167 	    0.0000 	   28.0000 	   24.1503
   14.9004 	   56.0423 	    0.0000 	   28.0000 	   24.5273
   14.9004 	   56.1590 	    0.0000 	   28.0000 	   24.8773
   14.9462 	   56.2810 	    0.0000 	   28.0000 	   25.2433
   14.9462 	   56.4060 	    0.0000 	   28.0000 	   25.6183
   14.9462 	   56.5210 	    0.0000 	   28.0000 	   25.9634
   14.7784 	   56.6370 	    0.0000 	   28.0000 	   26.3114
   14.9920 	   56.7523 	    0.0000 	   28.0000 	   26.6574
   14.9004 	   56.8710 	    0.0000 	   28.0000 	   27.0134
   14.9157 	   56.9900 	    0.0000 	   28.0000 	   27.3704
   14.8852 	   57.1087 	    0.0000 	   28.0000 	   27.7265
   15.0378 	   57.2277 	    0.0000 	   28.0000 	   28.0835
   15.0072 	   57.3433 	    0.0000 	   28.0000 	   28.4305
   14.8852 	   57.4587 	    0.0000 	   28.0000 	   28.7765
   14.8394 	   57.5857 	    0.0000 	   28.0000 	   29.1575
   14.9462 	   57.7047 	    0.0000 	   28.0000 	   29.5146
   14.7784 	   57.8210 	    0.0000 	   28.0000 	   29.8636
   14.8547 	   57.9460 	    0.0000 	   28.0000 	   30.2386
   14.5953 	   58.0670 	    0.0000 	   28.0000 	   30.6016
   14.7784 	   58.1897 	    0.0000 	   28.0000 	   30.9697
   14.6105 	   58.3053 	    0.0000 	   28.0000 	   31.3167
   14.7631 	   58.4243 	    0.0000 	   28.0000 	   31.6737
   14.8699 	   58.5403 	    0.0000 	   28.0000 	   32.0217
   14.8241 	   58.6573 	    0.0000 	   28.0000 	   32.3707
   14.8394 	   58.7733 	    0.0000 	   28.0000 	   32.7197
   14.8547 	   58.8890 	    0.0000 	   28.0000 	   33.0668
   14.8394 	   59.0077 	    0.0000 	   28.0000 	   33.4228
   14.7936 	   59.1247 	    0.0000 	   28.0000 	   33.7738
   14.5953 	   59.2423 	    0.0000 	   28.0000 	   34.1268
   14.7173 	   59.3593 	    0.0000 	   28.0000 	   34.4779
   14.8089 	   59.4760 	    0.0000 	   28.0000 	   34.8279
   14.5190 	   59.5987 	    0.0000 	   28.0000 	   35.1959
   14.7936 	   59.7187 	    0.0000 	   28.0000 	   35.5559
   14.8547 	   59.8360 	    0.0000 	   28.0000 	   35.9079
   14.7784 	   59.9583 	    0.0000 	   28.0000 	   36.2750
   14.7173 	   60.0767 	    0.0000 	   28.0000 	   36.6300
   14.5800 	   60.1947 	    0.0000 	   28.0000 	   36.9840
   14.7784 	   60.3163 	    0.0000 	   28.0000 	   37.3490
   14.8241 	   60.4350 	    0.0000 	   28.0000 	   37.7050
   14.5800 	   60.5540 	    0.0000 	   28.0000 	   38.0621
   14.7326 	   60.6720 	    0.0000 	   28.0000 	   38.4161
   14.5342 	   60.8020 	    0.0000 	   28.0000 	   38.8061
   14.7326 	   60.9267 	    0.0000 	   28.0000 	   39.1801
   14.7936 	   61.0520 	    0.0000 	   28.0000 	   39.5561
   14.7784 	   61.1767 	    0.0000 	   28.0000 	   39.9302
   14.6715 	   61.3030 	    0.0000 	   28.0000 	   40.3092
   14.6105 	   61.4283 	    0.0000 	   28.0000 	   40.6852
   13.6187 	   61.5530 	    0.0000 	   28.0000 	   41.0592
   12.8710 	   61.6830 	    0.0000 	   28.0000 	   41.4492
   12.6116 	   61.8063 	    0.0000 	   28.0000 	   41.8193
   12.1996 	   61.9383 	    0.0000 	   28.0000 	   42.2153
   11.6808 	   62.0687 	    0.0000 	   28.0000 	   42.6063
   11.2840 	   62.1890 	    0.0000 	   28.0000 	   42.9673
   10.9026 	   62.3083 	    0.0000 	   28.0000 	   43.3254
   10.3685 	   62.4417 	    0.0000 	   28.0000 	   43.7254
   10.2159 	   62.5667 	    0.0000 	   28.0000 	   44.1004
    9.7276 	   62.6933 	    0.0000 	   28.0000 	   44.4804
    9.6361 	   62.8163 	    0.0000 	   28.0000 	   44.8494
    9.2393 	   62.9440 	    0.0000 	   28.0000 	   45.2325
    9.0410 	   63.0680 	    0.0000 	   28.0000 	   45.6045
    8.7510 	   63.1943 	    0.0000 	   28.0000 	   45.9835
    8.6595 	   63.3247 	    0.0000 	   28.0000 	   46.3745
    8.3543 	   63.4490 	    0.0000 	   28.0000 	   46.7476
    8.1254 	   63.5737 	    0.0000 	   28.0000 	   47.1216
    8.0186 	   63.7003 	    0.0000 	   28.0000 	   47.5016
    7.8813 	   63.8260 	    0.0000 	   28.0000 	   47.8786
    7.7134 	   63.9587 	    0.0000 	   28.0000 	   48.2766
    7.5303 	   64.0843 	    0.0000 	   28.0000 	   48.6537
    7.4693 	   64.2103 	    0.0000 	   28.0000 	   49.0317
    7.2251 	   64.3340 	    0.0000 	   28.0000 	   49.4027
    7.2099 	   64.4570 	    0.0000 	   28.0000 	   49.7707
    6.9657 	   64.5820 	    0.0000 	   28.0000 	   50.1457
    6.9505 	   64.7100 	    0.0000 	   28.0000 	   50.5298
    6.6606 	   64.8317 	    0.0000 	   28.0000 	   50.8948
    6.5690 	   64.9587 	    0.0000 	   28.0000 	   51.2758
    6.6300 	   65.0840 	    0.0000 	   28.0000 	   51.6518
    6.4622 	   65.2130 	    0.0000 	   28.0000 	   52.0389
    6.2333 	   65.3387 	    0.0000 	   28.0000 	   52.4159
    6.4012 	   65.4633 	    0.0000 	   28.0000 	   52.7899
    5.8366 	   65.5893 	    0.0000 	   28.0000 	   53.1679
    6.2333 	   65.7160 	    0.0000 	   28.0000 	   53.5479
    6.0044 	   65.8387 	    0.0000 	   28.0000 	   53.9160
    5.8518 	   65.9647 	    0.0000 	   28.0000 	   54.2940
    5.9129 	   66.0900 	    0.0000 	   28.0000 	   54.6700
    5.7755 	   66.2173 	    0.0000 	   28.0000 	   55.0520
    5.8213 	   66.3477 	    0.0000 	   28.0000 	   55.4431
    5.7908 	   66.4753 	    0.0000 	   28.0000 	   55.8261
    5.7145 	   66.6010 	    0.0000 	   28.0000 	   56.2031
    5.5009 	   66.7240 	    0.0000 	   28.0000 	   56.5721
    5.4704 	   66.8490 	    0.0000 	   28.0000 	   56.9471
    5.3941 	   66.9803 	    0.0000 	   28.0000 	   57.3412
    5.3788 	   67.1093 	    0.0000 	   28.0000 	   57.7282
    5.2873 	   67.2327 	    0.0000 	   28.0000 	   58.0982
    5.2415 	   67.3563 	    0.0000 	   28.0000 	   58.4692
    5.1041 	   67.4820 	    0.0000 	   28.0000 	   58.8462
    5.1499 	   67.6080 	    0.0000 	   28.0000 	   59.2243
    5.0889 	   67.7403 	    0.0000 	   28.0000 	   59.6213
    5.0431 	   67.8643 	    0.0000 	   28.0000 	   59.9933
    5.0584 	   67.9947 	    0.0000 	   29.0000 	    0.3843
    5.0126 	   68.1223 	    0.0000 	   29.0000 	    0.7674
    5.0126 	   68.2453 	    0.0000 	   29.0000 	    1.1364
    4.7379 	   68.3740 	    0.0000 	   29.0000 	    1.5224
    4.7684 	   68.4987 	    0.0000 	   29.0000 	    1.8954
    4.8600 	   68.6267 	    0.0000 	   29.0000 	    2.2804
    4.7532 	   68.7553 	    0.0000 	   29.0000 	    2.6665
    4.7684 	   68.8803 	    0.0000 	   29.0000 	    3.0415
    4.6921 	   69.0073 	    0.0000 	   29.0000 	    3.4225
    4.6159 	   69.1333 	    0.0000 	   29.0000 	    3.8005
    4.4633 	   69.2610 	    0.0000 	   29.0000 	    4.1836
    4.5548 	   69.3967 	    0.0000 	   29.0000 	    4.5906
    4.4938 	   69.5203 	    0.0000 	   29.0000 	    4.9616
    4.4480 	   69.6493 	    0.0000 	   29.0000 	    5.3486
    4.4480 	   69.7787 	    0.0000 	   29.0000 	    5.7366
    4.5548 	   69.9040 	    0.0000 	   29.0000 	    6.1127
    4.2954 	   70.0293 	    0.0000 	   29.0000 	    6.4887
    4.3107 	   70.1560 	    0.0000 	   29.0000 	    6.8687
    3.9750 	   70.2817 	    0.0000 	   29.0000 	    7.2447
    4.4022 	   70.4070 	    0.0000 	   29.0000 	    7.6207
    4.1581 	   70.5320 	    0.0000 	   29.0000 	    7.9958
    4.1886 	   70.6643 	    0.0000 	   29.0000 	    8.3928
    4.0208 	   70.7930 	    0.0000 	   29.0000 	    8.7788
    3.9445 	   70.9273 	    0.0000 	   29.0000 	    9.1818
    4.0208 	   71.0537 	    0.0000 	   29.0000 	    9.5609
    3.9139 	   71.1800 	    0.0000 	   29.0000 	    9.9399
    3.9445 	   71.3123 	    0.0000 	   29.0000 	   10.3369
    3.9597 	   71.4387 	    0.0000 	   29.0000 	   10.7159
    3.9597 	   71.5637 	    0.0000 	   29.0000 	   11.0909
    3.9445 	   71.6957 	    0.0000 	   29.0000 	   11.4870
    3.7919 	   71.8273 	    0.0000 	   29.0000 	   11.8820
    3.8224 	   71.9607 	    0.0000 	   29.0000 	   12.2820
    3.8682 	   72.0923 	    0.0000 	   29.0000 	   12.6770
    3.9292 	   72.2247 	    0.0000 	   29.0000 	   13.0741
    3.7156 	   72.3577 	    0.0000 	   29.0000 	   13.4731
    3.8071 	   72.4880 	    0.0000 	   29.0000 	   13.8641
    3.5935 	   72.6190 	    0.0000 	   29.0000 	   14.2571
    3.7156 	   72.7487 	    0.0000 	   29.0000 	   14.6461
    3.5935 	   72.8777 	    0.0000 	   29.0000 	   15.0332
    3.8376 	   73.0057 	    0.0000 	   29.0000 	   15.4172
    3.6240 	   73.1370 	    0.0000 	   29.0000 	   15.8112
    3.6240 	   73.2657 	    0.0000 	   29.0000 	   16.1972
    3.5477 	   73.3940 	    0.0000 	   29.0000 	   16.5823
    3.4714 	   73.5237 	    0.0000 	   29.0000 	   16.9713
    3.3646 	   73.6613 	    0.0000 	   29.0000 	   17.3843
    3.4409 	   73.7973 	    0.0000 	   29.0000 	   17.7923
    3.5935 	   73.9327 	    0.0000 	   29.0000 	   18.1984
    3.5019 	   74.0717 	    0.0000 	   29.0000 	   18.6154
    3.4562 	   74.2020 	    0.0000 	   29.0000 	   19.0064
    3.3799 	   74.3383 	    0.0000 	   29.0000 	   19.4154
    3.2731 	   74.4710 	    0.0000 	   29.0000 	   19.8134
    3.2120 	   74.6027 	    0.0000 	   29.0000 	   20.2085
    3.2578 	   74.7337 	    0.0000 	   29.0000 	   20.6015
    3.3036 	   74.8613 	    0.0000 	   29.0000 	   20.9845
    3.2578 	   74.9890 	    0.0000 	   29.0000 	   21.3675
    3.2731 	   75.1193 	    0.0000 	   29.0000 	   21.7586
    3.3188 	   75.2507 	    0.0000 	   29.0000 	   22.1526
    3.2578 	   75.3833 	    0.0000 	   29.0000 	   22.5506
    3.0594 	   75.5157 	    0.0000 	   29.0000 	   22.9476
    3.0594 	   75.6510 	    0.0000 	   29.0000 	   23.3536
    3.2578 	   75.7840 	    0.0000 	   29.0000 	   23.7527
    3.0594 	   75.9153 	    0.0000 	   29.0000 	   24.1467
    2.9984 	   76.0557 	    0.0000 	   29.0000 	   24.5667
    2.9831 	   76.1897 	    0.0000 	   29.0000 	   24.9687
    2.8153 	   76.3263 	    0.0000 	   29.0000 	   25.3788
    2.9526 	   76.4577 	    0.0000 	   29.0000 	   25.7728
    2.9679 	   76.5907 	    0.0000 	   29.0000 	   26.1718
    2.9526 	   76.7280 	    0.0000 	   29.0000 	   26.5838
    2.8916 	   76.8637 	    0.0000 	   29.0000 	   26.9899
    2.9526 	   76.9963 	    0.0000 	   29.0000 	   27.3889
    2.8305 	   77.1353 	    0.0000 	   29.0000 	   27.8059
    2.9221 	   77.2723 	    0.0000 	   29.0000 	   28.2169
    2.9068 	   77.4070 	    0.0000 	   29.0000 	   28.6209
    2.8458 	   77.5470 	    0.0000 	   29.0000 	   29.0410
    2.7848 	   77.6850 	    0.0000 	   29.0000 	   29.4550
    2.8000 	   77.8183 	    0.0000 	   29.0000 	   29.8550
    2.7085 	   77.9543 	    0.0000 	   29.0000 	   30.2630
    2.5864 	   78.0910 	    0.0000 	   29.0000 	   30.6731
    2.6017 	   78.2243 	    0.0000 	   29.0000 	   31.0731
    2.7237 	   78.3570 	    0.0000 	   29.0000 	   31.4711
    2.6169 	   78.4910 	    0.0000 	   29.0000 	   31.8731
    2.6474 	   78.6247 	    0.0000 	   29.0000 	   32.2742
    2.6780 	   78.7637 	    0.0000 	   29.0000 	   32.6912
    2.6780 	   78.8953 	    0.0000 	   29.0000 	   33.0862
    2.5864 	   79.0310 	    0.0000 	   29.0000 	   33.4932
    2.6780 	   79.1723 	    0.0000 	   29.0000 	   33.9173
    2.4643 	   79.3087 	    0.0000 	   29.0000 	   34.3263
    2.5406 	   79.4427 	    0.0000 	   29.0000 	   34.7283
    2.4338 	   79.5763 	    0.0000 	   29.0000 	   35.1293
    2.4796 	   79.7167 	    0.0000 	   29.0000 	   35.5503
    2.3728 	   79.8537 	    0.0000 	   29.0000 	   35.9614
    2.4796 	   79.9887 	    0.0000 	   29.0000 	   36.3664
    2.4491 	   80.1273 	    0.0000 	   29.0000 	   36.7824
    2.3423 	   80.2650 	    0.0000 	   29.0000 	   37.1954
    2.5711 	   80.4000 	    0.0000 	   29.0000 	   37.6005
    2.3880 	   80.5353 	    0.0000 	   29.0000 	   38.0065
    2.3117 	   80.6687 	    0.0000 	   29.0000 	   38.4065
    2.2660 	   80.8067 	    0.0000 	   29.0000 	   38.8205
    2.2202 	   80.9433 	    0.0000 	   29.0000 	   39.2306
    2.2660 	   81.0820 	    0.0000 	   29.0000 	   39.6466
    2.1286 	   81.2220 	    0.0000 	   29.0000 	   40.0666
    2.2507 	   81.3563 	    0.0000 	   29.0000 	   40.4696
    2.2812 	   81.4907 	    0.0000 	   29.0000 	   40.8727
    2.2507 	   81.6277 	    0.0000 	   29.0000 	   41.2837
    2.1897 	   81.7653 	    0.0000 	   29.0000 	   41.6967
    2.1592 	   81.9107 	    0.0000 	   29.0000 	   42.1317
    2.1897 	   82.0560 	    0.0000 	   29.0000 	   42.5677
    2.1286 	   82.1953 	    0.0000 	   29.0000 	   42.9858
    1.9760 	   82.3390 	    0.0000 	   29.0000 	   43.4168
    1.9455 	   82.4853 	    0.0000 	   29.0000 	   43.8558
    2.1744 	   82.6293 	    0.0000 	   29.0000 	   44.2878
    1.9608 	   82.7747 	    0.0000 	   29.0000 	   44.7239
    1.9608 	   82.9183 	    0.0000 	   29.0000 	   45.1549
    1.8387 	   83.0603 	    0.0000 	   29.0000 	   45.5809
    1.9150 	   83.1983 	    0.0000 	   29.0000 	   45.9949
    1.7472 	   83.3460 	    0.0000 	   29.0000 	   46.4380
    1.9455 	   83.4923 	    0.0000 	   29.0000 	   46.8770
    1.8997 	   83.6367 	    0.0000 	   29.0000 	   47.3100
    1.8235 	   83.7777 	    0.0000 	   29.0000 	   47.7330
    1.9150 	   83.9163 	    0.0000 	   29.0000 	   48.1491
    1.8387 	   84.0637 	    0.0000 	   29.0000 	   48.5911
    1.6709 	   84.2057 	    0.0000 	   29.0000 	   49.0171
    1.7014 	   84.3433 	    0.0000 	   29.0000 	   49.4301
    1.7014 	   84.4800 	    0.0000 	   29.0000 	   49.8402
    1.5793 	   84.6263 	    0.0000 	   29.0000 	   50.2792
    1.8692 	   84.7663 	    0.0000 	   29.0000 	   50.6992
    1.9150 	   84.9040 	    0.0000 	   29.0000 	   51.1122
    1.7166 	   85.0467 	    0.0000 	   29.0000 	   51.5403
    1.5488 	   85.1923 	    0.0000 	   29.0000 	   51.9773
    1.6861 	   85.3350 	    0.0000 	   29.0000 	   52.4053
    1.7166 	   85.4733 	    0.0000 	   29.0000 	   52.8203
    1.5946 	   85.6133 	    0.0000 	   29.0000 	   53.2404
    1.5488 	   85.7557 	    0.0000 	   29.0000 	   53.6674
    1.3504 	   85.9007 	    0.0000 	   29.0000 	   54.1024
    1.7014 	   86.0417 	    0.0000 	   29.0000 	   54.5254
    1.6403 	   86.1820 	    0.0000 	   29.0000 	   54.9465
    1.5640 	   86.3270 	    0.0000 	   29.0000 	   55.3815
    1.4572 	   86.4737 	    0.0000 	   29.0000 	   55.8215
    1.3352 	   86.6143 	    0.0000 	   29.0000 	   56.2435
    1.5183 	   86.7537 	    0.0000 	   29.0000 	   56.6616
    1.4878 	   86.8977 	    0.0000 	   29.0000 	   57.0936
    1.4725 	   87.0450 	    0.0000 	   29.0000 	   57.5356
    1.3504 	   87.1937 	    0.0000 	   29.0000 	   57.9816
    1.3046 	   87.3420 	    0.0000 	   29.0000 	   58.4267
    1.4572 	   87.4880 	    0.0000 	   29.0000 	   58.8647
    1.2894 	   87.6270 	    0.0000 	   29.0000 	   59.2817
    1.2436 	   87.7673 	    0.0000 	   29.0000 	   59.7017
    1.1368 	   87.9140 	    0.0000 	   30.0000 	    0.1418
    1.3199 	   88.0603 	    0.0000 	   30.0000 	    0.5808
    1.2589 	   88.2007 	    0.0000 	   30.0000 	    1.0018
    1.1826 	   88.3453 	    0.0000 	   30.0000 	    1.4358
    1.1673 	   88.4890 	    0.0000 	   30.0000 	    1.8668
    1.2741 	   88.6290 	    0.0000 	   30.0000 	    2.2869
    1.1673 	   88.7677 	    0.0000 	   30.0000 	    2.7029
    1.1215 	   88.9163 	    0.0000 	   30.0000 	    3.1489
    1.2589 	   89.0583 	    0.0000 	   30.0000 	    3.5749
    1.0452 	   89.2090 	    0.0000 	   30.0000 	    4.0270
    1.0910 	   89.3550 	    0.0000 	   30.0000 	    4.4650
    0.9384 	   89.4917 	    0.0000 	   30.0000 	    4.8750
    1.1673 	   89.6390 	    0.0000 	   30.0000 	    5.3170
    0.9689 	   89.7877 	    0.0000 	   30.0000 	    5.7631
    1.0300 	   89.9400 	    0.0000 	   30.0000 	    6.2201
    0.8316 	   90.0913 	    0.0000 	   30.0000 	    6.6741
    0.9537 	   90.2393 	    0.0000 	   30.0000 	    7.1182
    0.9384 	   90.3787 	    0.0000 	   30.0000 	    7.5362
    0.8774 	   90.5203 	    0.0000 	   30.0000 	    7.9612
    0.5722 	   90.6713 	    0.0000 	   30.0000 	    8.4142
    0.7553 	   90.8137 	    0.0000 	   30.0000 	    8.8412
    0.9537 	   90.9553 	    0.0000 	   30.0000 	    9.2663
    0.6790 	   91.1003 	    0.0000 	   30.0000 	    9.7013
    0.8011 	   91.2517 	    0.0000 	   30.0000 	   10.1553
    0.7248 	   91.4017 	    0.0000 	   30.0000 	   10.6054
    0.6638 	   91.5463 	    0.0000 	   30.0000 	   11.0394
    0.6332 	   91.6950 	    0.0000 	   30.0000 	   11.4854
    0.6638 	   91.8373 	    0.0000 	   30.0000 	   11.9124
    0.5875 	   91.9923 	    0.0000 	   30.0000 	   12.3775
    0.5722 	   92.1390 	    0.0000 	   30.0000 	   12.8175
    0.6332 	   92.2897 	    0.0000 	   30.0000 	   13.2695
    0.5875 	   92.4413 	    0.0000 	   30.0000 	   13.7245
    0.5112 	   92.5927 	    0.0000 	   30.0000 	   14.1786
    0.4654 	   92.7390 	    0.0000 	   30.0000 	   14.6176
    0.5112 	   92.8820 	    0.0000 	   30.0000 	   15.0466
    0.3281 	   93.0260 	    0.0000 	   30.0000 	   15.4786
    0.1755 	   93.1740 	    0.0000 	   30.0000 	   15.9227
    0.3281 	   93.3273 	    0.0000 	   30.0000 	   16.3827
    0.2823 	   93.4740 	    0.0000 	   30.0000 	   16.8227
    0.2518 	   93.6177 	    0.0000 	   30.0000 	   17.2527
    0.2365 	   93.7630 	    0.0000 	   30.0000 	   17.6888
    0.2060 	   93.9057 	    0.0000 	   30.0000 	   18.1168
    0.2213 	   94.0513 	    0.0000 	   30.0000 	   18.5538
    0.1450 	   94.1960 	    0.0000 	   30.0000 	   18.9878
    0.1602 	   94.3430 	    0.0000 	   30.0000 	   19.4289
    0.1602 	   94.4960 	    0.0000 	   30.0000 	   19.8879
    0.3891 	   94.6467 	    0.0000 	   30.0000 	   20.3399
    0.0687 	   94.7957 	    0.0000 	   30.0000 	   20.7869
    0.2518 	   94.9413 	    0.0000 	   30.0000 	   21.2240
    0.1450 	   95.0927 	    0.0000 	   30.0000 	   21.6780
    0.0687 	   95.2497 	    0.0000 	   30.0000 	   22.1490
    0.0839 	   95.4017 	    0.0000 	   30.0000 	   22.6040
    0.1144 	   95.5550 	    0.0000 	   30.0000 	   23.0651
    0.0992 	   95.7033 	    0.0000 	   30.0000 	   23.5101
    0.1602 	   95.8577 	    0.0000 	   30.0000 	   23.9731