File: instron/10_grey_3W15L_drag40_spd30.txt
Thayer School of Engineering        Instron 4442 Mechanical Testing System
6/28/2018 1:15:04 AM

  Force (N)	Extension (mm)	Not Used	Not Used	Not Used	     Hour	    Minute	    Second
    0.1144 	    0.5115 	    1.0000 	   15.0000 	   15.6221
    0.0992 	    0.6805 	    1.0000 	   15.0000 	   15.9601
    0.1144 	    0.8530 	    1.0000 	   15.0000 	   16.3051
    0.3128 	    1.0460 	    1.0000 	   15.0000 	   16.6911
    0.1144 	    1.2150 	    1.0000 	   15.0000 	   17.0291
    0.0687 	    1.3865 	    1.0000 	   15.0000 	   17.3722
    0.0687 	    1.5835 	    1.0000 	   15.0000 	   17.7662
    0.0992 	    1.7175 	    1.0000 	   15.0000 	   18.0342
    0.0076 	    1.8345 	    1.0000 	   15.0000 	   18.2682
    0.2518 	    1.9665 	    1.0000 	   15.0000 	   18.5322
    0.1602 	    2.0765 	    1.0000 	   15.0000 	   18.7522
    0.1907 	    2.1865 	    1.0000 	   15.0000 	   18.9723
    0.1907 	    2.2995 	    1.0000 	   15.0000 	   19.1983
    0.2213 	    2.4195 	    1.0000 	   15.0000 	   19.4383
    0.0839 	    2.5245 	    1.0000 	   15.0000 	   19.6483
    0.2060 	    2.6405 	    1.0000 	   15.0000 	   19.8803
    0.2060 	    2.7530 	    1.0000 	   15.0000 	   20.1053
    0.1297 	    2.8595 	    1.0000 	   15.0000 	   20.3183
    0.0687 	    2.9590 	    1.0000 	   15.0000 	   20.5173
   -0.1144 	    3.0665 	    1.0000 	   15.0000 	   20.7324
    0.1450 	    3.1765 	    1.0000 	   15.0000 	   20.9524
   -0.0076 	    3.2880 	    1.0000 	   15.0000 	   21.1754
    0.1144 	    3.3935 	    1.0000 	   15.0000 	   21.3864
    0.1450 	    3.4900 	    1.0000 	   15.0000 	   21.5794
    0.1297 	    3.5995 	    1.0000 	   15.0000 	   21.7984
    0.1144 	    3.7115 	    1.0000 	   15.0000 	   22.0224
    0.0534 	    3.8240 	    1.0000 	   15.0000 	   22.2474
    0.0534 	    3.9265 	    1.0000 	   15.0000 	   22.4525
    0.1297 	    4.0295 	    1.0000 	   15.0000 	   22.6585
    0.2976 	    4.1410 	    1.0000 	   15.0000 	   22.8815
    0.1450 	    4.2515 	    1.0000 	   15.0000 	   23.1025
    0.1450 	    4.3585 	    1.0000 	   15.0000 	   23.3165
    0.0839 	    4.4575 	    1.0000 	   15.0000 	   23.5145
    0.2365 	    4.5590 	    1.0000 	   15.0000 	   23.7175
    0.1602 	    4.6685 	    1.0000 	   15.0000 	   23.9365
    0.2976 	    4.7815 	    1.0000 	   15.0000 	   24.1626
    0.0839 	    4.8890 	    1.0000 	   15.0000 	   24.3776
    0.3738 	    4.9865 	    1.0000 	   15.0000 	   24.5726
    0.0687 	    5.0975 	    1.0000 	   15.0000 	   24.7946
    0.1907 	    5.2100 	    1.0000 	   15.0000 	   25.0196
    0.1755 	    5.3260 	    1.0000 	   15.0000 	   25.2516
    0.1297 	    5.4325 	    1.0000 	   15.0000 	   25.4646
    0.0992 	    5.5465 	    1.0000 	   15.0000 	   25.6926
    0.1144 	    5.6605 	    1.0000 	   15.0000 	   25.9207
    0.0381 	    5.7760 	    1.0000 	   15.0000 	   26.1517
    0.2060 	    5.8835 	    1.0000 	   15.0000 	   26.3667
    0.2670 	    5.9840 	    1.0000 	   15.0000 	   26.5677
    0.2670 	    6.0860 	    1.0000 	   15.0000 	   26.7717
    0.1907 	    6.1905 	    1.0000 	   15.0000 	   26.9807
    0.0229 	    6.2975 	    1.0000 	   15.0000 	   27.1947
    0.0839 	    6.4090 	    1.0000 	   15.0000 	   27.4167
    0.0992 	    6.5225 	    1.0000 	   15.0000 	   27.6438
    0.1297 	    6.6380 	    1.0000 	   15.0000 	   27.8748
    0.0687 	    6.7470 	    1.0000 	   15.0000 	   28.0928
    0.2976 	    6.8615 	    1.0000 	   15.0000 	   28.3218
    0.0992 	    6.9755 	    1.0000 	   15.0000 	   28.5498
    0.2976 	    7.0910 	    1.0000 	   15.0000 	   28.7808
    0.1450 	    7.2070 	    1.0000 	   15.0000 	   29.0128
    0.2518 	    7.3210 	    1.0000 	   15.0000 	   29.2408
    0.3128 	    7.4335 	    1.0000 	   15.0000 	   29.4659
   -0.1450 	    7.5335 	    1.0000 	   15.0000 	   29.6659
    0.3281 	    7.6485 	    1.0000 	   15.0000 	   29.8959
    0.3586 	    7.7635 	    1.0000 	   15.0000 	   30.1259
    0.2213 	    7.8800 	    1.0000 	   15.0000 	   30.3589
   -0.0381 	    7.9960 	    1.0000 	   15.0000 	   30.5909
    0.2670 	    8.1135 	    1.0000 	   15.0000 	   30.8259
    0.2365 	    8.2300 	    1.0000 	   15.0000 	   31.0590
    0.3433 	    8.3480 	    1.0000 	   15.0000 	   31.2950
    0.2976 	    8.4655 	    1.0000 	   15.0000 	   31.5300
    0.2823 	    8.5790 	    1.0000 	   15.0000 	   31.7570
    0.3891 	    8.6960 	    1.0000 	   15.0000 	   31.9910
    0.3433 	    8.8110 	    1.0000 	   15.0000 	   32.2210
    0.3738 	    8.9175 	    1.0000 	   15.0000 	   32.4340
    0.4959 	    9.0305 	    1.0000 	   15.0000 	   32.6600
    0.4196 	    9.1485 	    1.0000 	   15.0000 	   32.8961
    0.2365 	    9.2700 	    1.0000 	   15.0000 	   33.1391
    0.4044 	    9.3890 	    1.0000 	   15.0000 	   33.3771
    0.4959 	    9.5090 	    1.0000 	   15.0000 	   33.6171
    0.5417 	    9.6265 	    1.0000 	   15.0000 	   33.8521
    0.4196 	    9.7475 	    1.0000 	   15.0000 	   34.0941
    0.7706 	    9.8675 	    1.0000 	   15.0000 	   34.3341
    0.5722 	    9.9890 	    1.0000 	   15.0000 	   34.5772
    0.6638 	   10.1095 	    1.0000 	   15.0000 	   34.8182
    0.6638 	   10.2255 	    1.0000 	   15.0000 	   35.0502
    0.6943 	   10.3450 	    1.0000 	   15.0000 	   35.2892
    0.7553 	   10.4635 	    1.0000 	   15.0000 	   35.5262
    0.8469 	   10.5805 	    1.0000 	   15.0000 	   35.7602
    0.7858 	   10.6955 	    1.0000 	   15.0000 	   35.9902
    0.8011 	   10.8130 	    1.0000 	   15.0000 	   36.2252
    0.9384 	   10.9335 	    1.0000 	   15.0000 	   36.4663
    0.8469 	   11.0490 	    1.0000 	   15.0000 	   36.6973
    0.9689 	   11.1650 	    1.0000 	   15.0000 	   36.9293
    0.8316 	   11.2795 	    1.0000 	   15.0000 	   37.1583
    0.9537 	   11.3820 	    1.0000 	   15.0000 	   37.3633
    1.1826 	   11.4995 	    1.0000 	   15.0000 	   37.5983
    1.0910 	   11.6195 	    1.0000 	   15.0000 	   37.8383
    1.0758 	   11.7405 	    1.0000 	   15.0000 	   38.0804
    1.1521 	   11.8610 	    1.0000 	   15.0000 	   38.3214
    1.1215 	   11.9805 	    1.0000 	   15.0000 	   38.5604
    1.2741 	   12.0940 	    1.0000 	   15.0000 	   38.7874
    1.1978 	   12.1990 	    1.0000 	   15.0000 	   38.9974
    1.4115 	   12.3215 	    1.0000 	   15.0000 	   39.2424
    1.2131 	   12.4395 	    1.0000 	   15.0000 	   39.4784
    1.3352 	   12.5620 	    1.0000 	   15.0000 	   39.7234
    1.2741 	   12.6825 	    1.0000 	   15.0000 	   39.9645
    1.4115 	   12.8010 	    1.0000 	   15.0000 	   40.2015
    1.2589 	   12.9205 	    1.0000 	   15.0000 	   40.4405
    1.3046 	   13.0395 	    1.0000 	   15.0000 	   40.6785
    1.3199 	   13.1600 	    1.0000 	   15.0000 	   40.9195
    1.5030 	   13.2800 	    1.0000 	   15.0000 	   41.1595
    1.3504 	   13.4005 	    1.0000 	   15.0000 	   41.4005
    1.2284 	   13.5190 	    1.0000 	   15.0000 	   41.6376
    1.3046 	   13.6410 	    1.0000 	   15.0000 	   41.8816
    1.6861 	   13.7615 	    1.0000 	   15.0000 	   42.1226
    1.4725 	   13.8970 	    1.0000 	   15.0000 	   42.3936
    1.6556 	   14.0190 	    1.0000 	   15.0000 	   42.6376
    1.5030 	   14.1415 	    1.0000 	   15.0000 	   42.8826
    1.3504 	   14.2590 	    1.0000 	   15.0000 	   43.1176
    1.7929 	   14.3830 	    1.0000 	   15.0000 	   43.3657
    1.9455 	   14.5060 	    1.0000 	   15.0000 	   43.6117
    1.3352 	   14.6450 	    1.0000 	   15.0000 	   43.8897
    1.7624 	   14.7650 	    1.0000 	   15.0000 	   44.1297
    1.7014 	   14.8875 	    1.0000 	   15.0000 	   44.3747
    1.6556 	   15.0105 	    1.0000 	   15.0000 	   44.6207
    1.7319 	   15.1315 	    1.0000 	   15.0000 	   44.8617
    1.8235 	   15.2505 	    1.0000 	   15.0000 	   45.0998
    1.7472 	   15.3700 	    1.0000 	   15.0000 	   45.3388
    1.8082 	   15.4905 	    1.0000 	   15.0000 	   45.5798
    1.6709 	   15.6125 	    1.0000 	   15.0000 	   45.8238
    1.9608 	   15.7330 	    1.0000 	   15.0000 	   46.0648
    1.9608 	   15.8555 	    1.0000 	   15.0000 	   46.3098
    1.9608 	   15.9775 	    1.0000 	   15.0000 	   46.5538
    1.9913 	   16.0990 	    1.0000 	   15.0000 	   46.7969
    1.8540 	   16.2215 	    1.0000 	   15.0000 	   47.0419
    2.0218 	   16.3445 	    1.0000 	   15.0000 	   47.2879
    1.8845 	   16.4670 	    1.0000 	   15.0000 	   47.5329
    2.0066 	   16.5925 	    1.0000 	   15.0000 	   47.7839
    1.9760 	   16.7140 	    1.0000 	   15.0000 	   48.0269
    2.0218 	   16.8355 	    1.0000 	   15.0000 	   48.2699
    2.0066 	   16.9570 	    1.0000 	   15.0000 	   48.5129
    2.0676 	   17.0825 	    1.0000 	   15.0000 	   48.7640
    2.0829 	   17.2060 	    1.0000 	   15.0000 	   49.0110
    2.0523 	   17.3260 	    1.0000 	   15.0000 	   49.2510
    2.2202 	   17.4460 	    1.0000 	   15.0000 	   49.4910
    2.2660 	   17.5665 	    1.0000 	   15.0000 	   49.7320
    2.1134 	   17.6895 	    1.0000 	   15.0000 	   49.9780
    2.1286 	   17.8130 	    1.0000 	   15.0000 	   50.2250
    2.2202 	   17.9390 	    1.0000 	   15.0000 	   50.4771
    2.2202 	   18.0635 	    1.0000 	   15.0000 	   50.7261
    2.2965 	   18.1900 	    1.0000 	   15.0000 	   50.9791
    2.2354 	   18.3150 	    1.0000 	   15.0000 	   51.2291
    2.3270 	   18.4400 	    1.0000 	   15.0000 	   51.4791
    2.3880 	   18.5645 	    1.0000 	   15.0000 	   51.7281
    2.4796 	   18.6875 	    1.0000 	   15.0000 	   51.9741
    2.2812 	   18.8125 	    1.0000 	   15.0000 	   52.2242
    2.2812 	   18.9350 	    1.0000 	   15.0000 	   52.4692
    2.4186 	   19.0590 	    1.0000 	   15.0000 	   52.7172
    2.4643 	   19.1810 	    1.0000 	   15.0000 	   52.9612
    2.4033 	   19.3060 	    1.0000 	   15.0000 	   53.2112
    2.4796 	   19.4280 	    1.0000 	   15.0000 	   53.4552
    2.3728 	   19.5565 	    1.0000 	   15.0000 	   53.7122
    2.5254 	   19.6815 	    1.0000 	   15.0000 	   53.9623
    2.5864 	   19.8055 	    1.0000 	   15.0000 	   54.2103
    2.5101 	   19.9315 	    1.0000 	   15.0000 	   54.4623
    2.5559 	   20.0575 	    1.0000 	   15.0000 	   54.7143
    2.7085 	   20.1850 	    1.0000 	   15.0000 	   54.9693
    2.6932 	   20.3120 	    1.0000 	   15.0000 	   55.2233
    2.5864 	   20.4390 	    1.0000 	   15.0000 	   55.4773
    2.5711 	   20.5655 	    1.0000 	   15.0000 	   55.7304
    2.6169 	   20.6905 	    1.0000 	   15.0000 	   55.9804
    2.7848 	   20.8150 	    1.0000 	   15.0000 	   56.2294
    2.6932 	   20.9380 	    1.0000 	   15.0000 	   56.4754
    2.7085 	   21.0640 	    1.0000 	   15.0000 	   56.7274
    2.6017 	   21.1910 	    1.0000 	   15.0000 	   56.9814
    2.6932 	   21.3180 	    1.0000 	   15.0000 	   57.2354
    2.9068 	   21.4435 	    1.0000 	   15.0000 	   57.4865
    2.7085 	   21.5730 	    1.0000 	   15.0000 	   57.7455
    2.8000 	   21.7005 	    1.0000 	   15.0000 	   58.0005
    2.9526 	   21.8240 	    1.0000 	   15.0000 	   58.2475
    2.7695 	   21.9515 	    1.0000 	   15.0000 	   58.5025
    2.7848 	   22.0785 	    1.0000 	   15.0000 	   58.7565
    2.6932 	   22.1980 	    1.0000 	   15.0000 	   58.9955
    2.8458 	   22.3240 	    1.0000 	   15.0000 	   59.2476
    2.9526 	   22.4480 	    1.0000 	   15.0000 	   59.4956
    2.8458 	   22.5760 	    1.0000 	   15.0000 	   59.7516
    2.9984 	   22.7025 	    1.0000 	   16.0000 	    0.0046
    2.9984 	   22.8315 	    1.0000 	   16.0000 	    0.2626
    2.9679 	   22.9595 	    1.0000 	   16.0000 	    0.5186
    3.0289 	   23.0885 	    1.0000 	   16.0000 	    0.7767
    3.0442 	   23.2165 	    1.0000 	   16.0000 	    1.0327
    3.1357 	   23.3435 	    1.0000 	   16.0000 	    1.2867
    3.0747 	   23.4700 	    1.0000 	   16.0000 	    1.5397
    2.9984 	   23.6160 	    1.0000 	   16.0000 	    1.8317
    3.0137 	   23.7390 	    1.0000 	   16.0000 	    2.0777
    3.0594 	   23.8620 	    1.0000 	   16.0000 	    2.3227
    3.1510 	   23.9920 	    1.0000 	   16.0000 	    2.5828
    3.2273 	   24.1220 	    1.0000 	   16.0000 	    2.8428
    3.2273 	   24.2505 	    1.0000 	   16.0000 	    3.0998
    2.9984 	   24.3805 	    1.0000 	   16.0000 	    3.3598
    3.2273 	   24.5065 	    1.0000 	   16.0000 	    3.6118
    3.1510 	   24.6295 	    1.0000 	   16.0000 	    3.8578
    3.1815 	   24.7595 	    1.0000 	   16.0000 	    4.1178
    3.0900 	   24.8885 	    1.0000 	   16.0000 	    4.3759
    3.3341 	   25.0030 	    1.0000 	   16.0000 	    4.6049
    3.5019 	   25.1185 	    1.0000 	   16.0000 	    4.8359
    3.3036 	   25.2435 	    1.0000 	   16.0000 	    5.0859
    3.1205 	   25.3705 	    1.0000 	   16.0000 	    5.3399
    3.3036 	   25.5025 	    1.0000 	   16.0000 	    5.6039
    3.3494 	   25.6340 	    1.0000 	   16.0000 	    5.8669
    3.3951 	   25.7630 	    1.0000 	   16.0000 	    6.1250
    3.4867 	   25.8925 	    1.0000 	   16.0000 	    6.3840
    3.5325 	   26.0245 	    1.0000 	   16.0000 	    6.6480
    3.4714 	   26.1455 	    1.0000 	   16.0000 	    6.8900
    3.5325 	   26.2605 	    1.0000 	   16.0000 	    7.1200
    3.5325 	   26.3805 	    1.0000 	   16.0000 	    7.3600
    3.8071 	   26.4960 	    1.0000 	   16.0000 	    7.5910
    3.3951 	   26.6155 	    1.0000 	   16.0000 	    7.8301
    3.4867 	   26.7295 	    1.0000 	   16.0000 	    8.0581
    3.5477 	   26.8445 	    1.0000 	   16.0000 	    8.2881
    3.6698 	   26.9665 	    1.0000 	   16.0000 	    8.5321
    3.5477 	   27.0975 	    1.0000 	   16.0000 	    8.7941
    3.6240 	   27.2260 	    1.0000 	   16.0000 	    9.0511
    3.7003 	   27.3550 	    1.0000 	   16.0000 	    9.3091
    3.6698 	   27.4700 	    1.0000 	   16.0000 	    9.5392
    3.7156 	   27.5990 	    1.0000 	   16.0000 	    9.7972
    3.7613 	   27.7255 	    1.0000 	   16.0000 	   10.0502
    3.7156 	   27.8510 	    1.0000 	   16.0000 	   10.3012
    3.7308 	   27.9805 	    1.0000 	   16.0000 	   10.5602
    3.8071 	   28.1095 	    1.0000 	   16.0000 	   10.8182
    3.7308 	   28.2285 	    1.0000 	   16.0000 	   11.0562
    3.8834 	   28.3585 	    1.0000 	   16.0000 	   11.3163
    3.8682 	   28.4910 	    1.0000 	   16.0000 	   11.5813
    3.8682 	   28.6260 	    1.0000 	   16.0000 	   11.8513
    3.9139 	   28.7575 	    1.0000 	   16.0000 	   12.1143
    3.8987 	   28.8905 	    1.0000 	   16.0000 	   12.3803
    3.8987 	   29.0215 	    1.0000 	   16.0000 	   12.6423
    3.9139 	   29.1530 	    1.0000 	   16.0000 	   12.9053
    4.0513 	   29.2730 	    1.0000 	   16.0000 	   13.1454
    4.0818 	   29.4015 	    1.0000 	   16.0000 	   13.4024
    4.0208 	   29.5275 	    1.0000 	   16.0000 	   13.6544
    3.9597 	   29.6550 	    1.0000 	   16.0000 	   13.9094
    4.0360 	   29.7840 	    1.0000 	   16.0000 	   14.1674
    4.1581 	   29.9160 	    1.0000 	   16.0000 	   14.4314
    4.0818 	   30.0445 	    1.0000 	   16.0000 	   14.6884
    4.2802 	   30.1605 	    1.0000 	   16.0000 	   14.9205
    4.1276 	   30.2850 	    1.0000 	   16.0000 	   15.1695
    4.1581 	   30.4165 	    1.0000 	   16.0000 	   15.4325
    4.2496 	   30.5485 	    1.0000 	   16.0000 	   15.6965
    4.3107 	   30.6770 	    1.0000 	   16.0000 	   15.9535
    4.2802 	   30.8100 	    1.0000 	   16.0000 	   16.2195
    4.3259 	   30.9425 	    1.0000 	   16.0000 	   16.4845
    4.4327 	   31.0675 	    1.0000 	   16.0000 	   16.7346
    4.4480 	   31.2015 	    1.0000 	   16.0000 	   17.0026
    4.2496 	   31.3330 	    1.0000 	   16.0000 	   17.2656
    4.3565 	   31.4540 	    1.0000 	   16.0000 	   17.5076
    4.3412 	   31.5785 	    1.0000 	   16.0000 	   17.7566
    4.5396 	   31.7095 	    1.0000 	   16.0000 	   18.0186
    4.4327 	   31.8330 	    1.0000 	   16.0000 	   18.2657
    4.6006 	   31.9535 	    1.0000 	   16.0000 	   18.5067
    4.1581 	   32.0735 	    1.0000 	   16.0000 	   18.7467
    4.5701 	   32.2025 	    1.0000 	   16.0000 	   19.0047
    4.7227 	   32.3325 	    1.0000 	   16.0000 	   19.2647
    4.5090 	   32.4655 	    1.0000 	   16.0000 	   19.5307
    4.6159 	   32.5985 	    1.0000 	   16.0000 	   19.7957
    4.5853 	   32.7375 	    1.0000 	   16.0000 	   20.0738
    4.5396 	   32.8735 	    1.0000 	   16.0000 	   20.3458
    4.6616 	   33.0075 	    1.0000 	   16.0000 	   20.6138
    4.6769 	   33.1420 	    1.0000 	   16.0000 	   20.8828
    4.7379 	   33.2770 	    1.0000 	   16.0000 	   21.1528
    4.7379 	   33.4120 	    1.0000 	   16.0000 	   21.4228
    4.6616 	   33.5445 	    1.0000 	   16.0000 	   21.6878
    4.9363 	   33.6825 	    1.0000 	   16.0000 	   21.9639
    4.7990 	   33.8175 	    1.0000 	   16.0000 	   22.2339
    4.7990 	   33.9510 	    1.0000 	   16.0000 	   22.5009
    4.9363 	   34.0855 	    1.0000 	   16.0000 	   22.7699
    4.7532 	   34.2085 	    1.0000 	   16.0000 	   23.0159
    4.7684 	   34.3365 	    1.0000 	   16.0000 	   23.2719
    4.9668 	   34.4705 	    1.0000 	   16.0000 	   23.5400
    4.9210 	   34.6060 	    1.0000 	   16.0000 	   23.8110
    5.0126 	   34.7395 	    1.0000 	   16.0000 	   24.0770
    4.9516 	   34.8740 	    1.0000 	   16.0000 	   24.3470
    5.0278 	   34.9990 	    1.0000 	   16.0000 	   24.5970
    4.9973 	   35.1280 	    1.0000 	   16.0000 	   24.8550
    5.3330 	   35.2630 	    1.0000 	   16.0000 	   25.1250
    5.0126 	   35.3990 	    1.0000 	   16.0000 	   25.3971
    5.1499 	   35.5360 	    1.0000 	   16.0000 	   25.6711
    5.2262 	   35.6720 	    1.0000 	   16.0000 	   25.9431
    4.8905 	   35.7935 	    1.0000 	   16.0000 	   26.1861
    5.3941 	   35.9270 	    1.0000 	   16.0000 	   26.4531
    5.1499 	   36.0650 	    1.0000 	   16.0000 	   26.7291
    5.3788 	   36.2025 	    1.0000 	   16.0000 	   27.0042
    5.3025 	   36.3420 	    1.0000 	   16.0000 	   27.2832
    5.3788 	   36.4790 	    1.0000 	   16.0000 	   27.5572
    5.3635 	   36.6180 	    1.0000 	   16.0000 	   27.8352
    5.3941 	   36.7575 	    1.0000 	   16.0000 	   28.1142
    5.5467 	   36.8940 	    1.0000 	   16.0000 	   28.3872
    5.2567 	   37.0295 	    1.0000 	   16.0000 	   28.6582
    5.4398 	   37.1660 	    1.0000 	   16.0000 	   28.9313
    5.5009 	   37.2990 	    1.0000 	   16.0000 	   29.1973
    5.6382 	   37.4265 	    1.0000 	   16.0000 	   29.4523
    5.5161 	   37.5590 	    1.0000 	   16.0000 	   29.7173
    5.5619 	   37.6955 	    1.0000 	   16.0000 	   29.9903
    5.6229 	   37.8425 	    1.0000 	   16.0000 	   30.2843
    5.5619 	   37.9795 	    1.0000 	   16.0000 	   30.5584
    5.6229 	   38.1185 	    1.0000 	   16.0000 	   30.8364
    5.8671 	   38.2575 	    1.0000 	   16.0000 	   31.1144
    5.8824 	   38.3935 	    1.0000 	   16.0000 	   31.3864
    5.8366 	   38.5320 	    1.0000 	   16.0000 	   31.6634
    5.8061 	   38.6640 	    1.0000 	   16.0000 	   31.9274
    5.9434 	   38.7950 	    1.0000 	   16.0000 	   32.1894
    5.8213 	   38.9240 	    1.0000 	   16.0000 	   32.4475
    5.9586 	   39.0625 	    1.0000 	   16.0000 	   32.7245
    5.8671 	   39.1985 	    1.0000 	   16.0000 	   32.9965
    6.0044 	   39.3300 	    1.0000 	   16.0000 	   33.2595
    6.3096 	   39.4665 	    1.0000 	   16.0000 	   33.5325
    6.1418 	   39.6005 	    1.0000 	   16.0000 	   33.8005
    5.9892 	   39.7375 	    1.0000 	   16.0000 	   34.0746
    6.0197 	   39.8645 	    1.0000 	   16.0000 	   34.3286
    6.2028 	   40.0035 	    1.0000 	   16.0000 	   34.6066
    6.1418 	   40.1320 	    1.0000 	   16.0000 	   34.8636
    6.1418 	   40.2650 	    1.0000 	   16.0000 	   35.1296
    5.9281 	   40.4035 	    1.0000 	   16.0000 	   35.4066
    6.0502 	   40.5445 	    1.0000 	   16.0000 	   35.6886
    6.0044 	   40.6815 	    1.0000 	   16.0000 	   35.9627
    6.0044 	   40.8230 	    1.0000 	   16.0000 	   36.2457
    6.0197 	   40.9565 	    1.0000 	   16.0000 	   36.5127
    6.0807 	   41.0825 	    1.0000 	   16.0000 	   36.7647
    6.0960 	   41.2070 	    1.0000 	   16.0000 	   37.0137
    6.1570 	   41.3345 	    1.0000 	   16.0000 	   37.2677
    5.9586 	   41.4640 	    1.0000 	   16.0000 	   37.5268
    5.9586 	   41.5890 	    1.0000 	   16.0000 	   37.7768
    6.0655 	   41.7240 	    1.0000 	   16.0000 	   38.0468
    5.9739 	   41.8565 	    1.0000 	   16.0000 	   38.3118
    5.9281 	   41.9850 	    1.0000 	   16.0000 	   38.5688
    5.9281 	   42.1125 	    1.0000 	   16.0000 	   38.8238
    5.9434 	   42.2385 	    1.0000 	   16.0000 	   39.0758
    5.8824 	   42.3675 	    1.0000 	   16.0000 	   39.3339
    6.0960 	   42.4955 	    1.0000 	   16.0000 	   39.5899
    6.0197 	   42.6300 	    1.0000 	   16.0000 	   39.8589
    5.9739 	   42.7725 	    1.0000 	   16.0000 	   40.1439
    5.9281 	   42.9115 	    1.0000 	   16.0000 	   40.4219
    5.9434 	   43.0550 	    1.0000 	   16.0000 	   40.7089
    5.8518 	   43.1890 	    1.0000 	   16.0000 	   40.9770
    5.7908 	   43.3150 	    1.0000 	   16.0000 	   41.2290
    5.8213 	   43.4415 	    1.0000 	   16.0000 	   41.4820
    5.8518 	   43.5680 	    1.0000 	   16.0000 	   41.7350
    5.7450 	   43.6950 	    1.0000 	   16.0000 	   41.9890
    5.7908 	   43.8405 	    1.0000 	   16.0000 	   42.2800
    5.7908 	   43.9860 	    1.0000 	   16.0000 	   42.5710
    5.9281 	   44.1230 	    1.0000 	   16.0000 	   42.8451
    5.9129 	   44.2500 	    1.0000 	   16.0000 	   43.0991
    5.8213 	   44.3905 	    1.0000 	   16.0000 	   43.3801
    5.8518 	   44.5355 	    1.0000 	   16.0000 	   43.6701
    5.8518 	   44.6775 	    1.0000 	   16.0000 	   43.9541
    5.7298 	   44.8095 	    1.0000 	   16.0000 	   44.2181
    5.8671 	   44.9400 	    1.0000 	   16.0000 	   44.4791
    6.0197 	   45.0690 	    1.0000 	   16.0000 	   44.7372
    5.8213 	   45.2090 	    1.0000 	   16.0000 	   45.0172
    5.7450 	   45.3525 	    1.0000 	   16.0000 	   45.3042
    5.8061 	   45.4930 	    1.0000 	   16.0000 	   45.5852
    5.7908 	   45.6200 	    1.0000 	   16.0000 	   45.8392
    5.8518 	   45.7510 	    1.0000 	   16.0000 	   46.1012
    5.8671 	   45.8785 	    1.0000 	   16.0000 	   46.3563
    5.8061 	   46.0075 	    1.0000 	   16.0000 	   46.6143
    5.7603 	   46.1365 	    1.0000 	   16.0000 	   46.8723
    5.7603 	   46.2745 	    1.0000 	   16.0000 	   47.1483
    5.7145 	   46.4180 	    1.0000 	   16.0000 	   47.4353
    5.8824 	   46.5485 	    1.0000 	   16.0000 	   47.6963
    5.8213 	   46.6820 	    1.0000 	   16.0000 	   47.9633
    5.7755 	   46.8105 	    1.0000 	   16.0000 	   48.2204
    5.6992 	   46.9550 	    1.0000 	   16.0000 	   48.5094
    5.7450 	   47.0935 	    1.0000 	   16.0000 	   48.7864
    5.4398 	   47.2385 	    1.0000 	   16.0000 	   49.0764
    5.9129 	   47.3830 	    1.0000 	   16.0000 	   49.3654
    5.6840 	   47.5190 	    1.0000 	   16.0000 	   49.6374
    5.7298 	   47.6625 	    1.0000 	   16.0000 	   49.9245
    5.7450 	   47.8080 	    1.0000 	   16.0000 	   50.2155
    5.7145 	   47.9515 	    1.0000 	   16.0000 	   50.5025
    5.7755 	   48.1020 	    1.0000 	   16.0000 	   50.8035
    5.6229 	   48.2480 	    1.0000 	   16.0000 	   51.0955
    5.7145 	   48.3940 	    1.0000 	   16.0000 	   51.3875
    5.6535 	   48.5390 	    1.0000 	   16.0000 	   51.6776
    5.6840 	   48.6860 	    1.0000 	   16.0000 	   51.9716
    5.7145 	   48.8310 	    1.0000 	   16.0000 	   52.2616
    5.7145 	   48.9755 	    1.0000 	   16.0000 	   52.5506
    5.6382 	   49.1180 	    1.0000 	   16.0000 	   52.8356
    5.8061 	   49.2590 	    1.0000 	   16.0000 	   53.1176
    5.6077 	   49.3910 	    1.0000 	   16.0000 	   53.3817
    5.7298 	   49.5250 	    1.0000 	   16.0000 	   53.6497
    5.7755 	   49.6595 	    1.0000 	   16.0000 	   53.9187
    5.5772 	   49.7945 	    1.0000 	   16.0000 	   54.1887
    5.6687 	   49.9265 	    1.0000 	   16.0000 	   54.4527
    5.7145 	   50.0700 	    1.0000 	   16.0000 	   54.7387
    5.6229 	   50.2045 	    1.0000 	   16.0000 	   55.0078
    5.6535 	   50.3370 	    1.0000 	   16.0000 	   55.2728
    5.8366 	   50.4680 	    1.0000 	   16.0000 	   55.5348
    5.7908 	   50.5995 	    1.0000 	   16.0000 	   55.7978
    5.6992 	   50.7305 	    1.0000 	   16.0000 	   56.0598
    5.6840 	   50.8615 	    1.0000 	   16.0000 	   56.3218
    5.7908 	   50.9935 	    1.0000 	   16.0000 	   56.5858
    5.6687 	   51.1265 	    1.0000 	   16.0000 	   56.8519
    5.7145 	   51.2580 	    1.0000 	   16.0000 	   57.1149
    5.6077 	   51.3905 	    1.0000 	   16.0000 	   57.3799
    5.6077 	   51.5230 	    1.0000 	   16.0000 	   57.6449
    5.5924 	   51.6560 	    1.0000 	   16.0000 	   57.9109
    5.5619 	   51.8030 	    1.0000 	   16.0000 	   58.2049
    5.6382 	   51.9515 	    1.0000 	   16.0000 	   58.5020
    5.7603 	   52.0970 	    1.0000 	   16.0000 	   58.7930
    5.7603 	   52.2335 	    1.0000 	   16.0000 	   59.0660
    5.7145 	   52.3690 	    1.0000 	   16.0000 	   59.3370
    5.6840 	   52.5075 	    1.0000 	   16.0000 	   59.6140
    5.5619 	   52.6525 	    1.0000 	   16.0000 	   59.9040
    5.7755 	   52.8065 	    1.0000 	   17.0000 	    0.2121
    5.6535 	   52.9570 	    1.0000 	   17.0000 	    0.5131
    5.7145 	   53.1065 	    1.0000 	   17.0000 	    0.8121
    5.5772 	   53.2555 	    1.0000 	   17.0000 	    1.1101
    5.5772 	   53.3975 	    1.0000 	   17.0000 	    1.3941
    5.5772 	   53.5355 	    1.0000 	   17.0000 	    1.6701
    5.5772 	   53.6735 	    1.0000 	   17.0000 	    1.9461
    5.5772 	   53.8145 	    1.0000 	   17.0000 	    2.2282
    5.5161 	   53.9490 	    1.0000 	   17.0000 	    2.4972
    5.6077 	   54.1020 	    1.0000 	   17.0000 	    2.8032
    5.6992 	   54.2540 	    1.0000 	   17.0000 	    3.1072
    5.5619 	   54.4040 	    1.0000 	   17.0000 	    3.4072
    5.6382 	   54.5415 	    1.0000 	   17.0000 	    3.6822
    5.5619 	   54.6750 	    1.0000 	   17.0000 	    3.9493
    5.5314 	   54.8200 	    1.0000 	   17.0000 	    4.2393
    5.6992 	   54.9615 	    1.0000 	   17.0000 	    4.5223
    5.4246 	   55.1060 	    1.0000 	   17.0000 	    4.8113
    5.5314 	   55.2465 	    1.0000 	   17.0000 	    5.0923
    5.5772 	   55.3950 	    1.0000 	   17.0000 	    5.3893
    5.5161 	   55.5455 	    1.0000 	   17.0000 	    5.6904
    5.7450 	   55.6950 	    1.0000 	   17.0000 	    5.9894
    5.6382 	   55.8445 	    1.0000 	   17.0000 	    6.2884
    5.5467 	   55.9825 	    1.0000 	   17.0000 	    6.5644
    5.5772 	   56.1190 	    1.0000 	   17.0000 	    6.8374
    5.5314 	   56.2635 	    1.0000 	   17.0000 	    7.1264
    5.4704 	   56.3995 	    1.0000 	   17.0000 	    7.3985
    5.5772 	   56.5345 	    1.0000 	   17.0000 	    7.6685
    5.4398 	   56.6765 	    1.0000 	   17.0000 	    7.9525
    5.5467 	   56.8280 	    1.0000 	   17.0000 	    8.2555
    5.5467 	   56.9615 	    1.0000 	   17.0000 	    8.5225
    5.4551 	   57.0970 	    1.0000 	   17.0000 	    8.7935
    5.5314 	   57.2490 	    1.0000 	   17.0000 	    9.0976
    5.3941 	   57.3950 	    1.0000 	   17.0000 	    9.3896
    5.5009 	   57.5300 	    1.0000 	   17.0000 	    9.6596
    5.5467 	   57.6635 	    1.0000 	   17.0000 	    9.9266
    5.6535 	   57.7985 	    1.0000 	   17.0000 	   10.1966
    5.5619 	   57.9335 	    1.0000 	   17.0000 	   10.4666
    5.5009 	   58.0710 	    1.0000 	   17.0000 	   10.7417
    5.6077 	   58.2140 	    1.0000 	   17.0000 	   11.0277
    5.5009 	   58.3505 	    1.0000 	   17.0000 	   11.3007
    5.6535 	   58.4870 	    1.0000 	   17.0000 	   11.5737
    5.6229 	   58.6240 	    1.0000 	   17.0000 	   11.8467
    5.5772 	   58.7750 	    1.0000 	   17.0000 	   12.1497
    5.5314 	   58.9135 	    1.0000 	   17.0000 	   12.4257
    5.5009 	   59.0485 	    1.0000 	   17.0000 	   12.6958
    5.6382 	   59.1910 	    1.0000 	   17.0000 	   12.9808
    5.6382 	   59.3270 	    1.0000 	   17.0000 	   13.2528
    5.5772 	   59.4805 	    1.0000 	   17.0000 	   13.5598
    5.6229 	   59.6325 	    1.0000 	   17.0000 	   13.8638
    5.5314 	   59.7805 	    1.0000 	   17.0000 	   14.1598
    5.5772 	   59.9205 	    1.0000 	   17.0000 	   14.4399
    5.5924 	   60.0775 	    1.0000 	   17.0000 	   14.7539
    5.5619 	   60.2325 	    1.0000 	   17.0000 	   15.0639
    5.5161 	   60.3760 	    1.0000 	   17.0000 	   15.3509
    5.5009 	   60.5295 	    1.0000 	   17.0000 	   15.6579
    5.5924 	   60.6795 	    1.0000 	   17.0000 	   15.9580
    5.6077 	   60.8245 	    1.0000 	   17.0000 	   16.2480
    5.6687 	   60.9780 	    1.0000 	   17.0000 	   16.5550
    5.6229 	   61.1330 	    1.0000 	   17.0000 	   16.8650
    5.6992 	   61.2880 	    1.0000 	   17.0000 	   17.1750
    5.5772 	   61.4410 	    1.0000 	   17.0000 	   17.4810
    5.4704 	   61.5970 	    1.0000 	   17.0000 	   17.7931
    5.5009 	   61.7455 	    1.0000 	   17.0000 	   18.0901
    5.5467 	   61.8975 	    1.0000 	   17.0000 	   18.3941
    5.4704 	   62.0485 	    1.0000 	   17.0000 	   18.6961
    5.5772 	   62.2050 	    1.0000 	   17.0000 	   19.0091
    5.4704 	   62.3580 	    1.0000 	   17.0000 	   19.3151
    5.5619 	   62.5110 	    1.0000 	   17.0000 	   19.6212
    5.5772 	   62.6600 	    1.0000 	   17.0000 	   19.9192
    5.5772 	   62.8075 	    1.0000 	   17.0000 	   20.2142
    5.5467 	   62.9630 	    1.0000 	   17.0000 	   20.5252
    5.5924 	   63.1175 	    1.0000 	   17.0000 	   20.8342
    5.5619 	   63.2760 	    1.0000 	   17.0000 	   21.1512
    5.5467 	   63.4230 	    1.0000 	   17.0000 	   21.4453
    5.5161 	   63.5715 	    1.0000 	   17.0000 	   21.7423
    5.5009 	   63.7210 	    1.0000 	   17.0000 	   22.0413
    5.4856 	   63.8795 	    1.0000 	   17.0000 	   22.3583
    5.5314 	   64.0360 	    1.0000 	   17.0000 	   22.6713
    5.5161 	   64.1945 	    1.0000 	   17.0000 	   22.9884
    5.5924 	   64.3490 	    1.0000 	   17.0000 	   23.2974
    5.5161 	   64.4885 	    1.0000 	   17.0000 	   23.5764
    5.5314 	   64.6340 	    1.0000 	   17.0000 	   23.8674
    5.4551 	   64.7830 	    1.0000 	   17.0000 	   24.1654
    5.5161 	   64.9230 	    1.0000 	   17.0000 	   24.4454
    5.5161 	   65.0675 	    1.0000 	   17.0000 	   24.7345
    5.6077 	   65.2145 	    1.0000 	   17.0000 	   25.0285
    5.4093 	   65.3650 	    1.0000 	   17.0000 	   25.3295
    5.5314 	   65.5065 	    1.0000 	   17.0000 	   25.6125
    5.4551 	   65.6465 	    1.0000 	   17.0000 	   25.8925
    5.5467 	   65.7990 	    1.0000 	   17.0000 	   26.1975
    5.5009 	   65.9505 	    1.0000 	   17.0000 	   26.5006
    5.5772 	   66.1005 	    1.0000 	   17.0000 	   26.8006
    5.5467 	   66.2500 	    1.0000 	   17.0000 	   27.0996
    5.5314 	   66.3975 	    1.0000 	   17.0000 	   27.3946
    5.4856 	   66.5525 	    1.0000 	   17.0000 	   27.7046
    5.4704 	   66.7060 	    1.0000 	   17.0000 	   28.0116
    5.4093 	   66.8465 	    1.0000 	   17.0000 	   28.2927
    5.5161 	   66.9895 	    1.0000 	   17.0000 	   28.5787
    5.4246 	   67.1300 	    1.0000 	   17.0000 	   28.8597
    5.4704 	   67.2875 	    1.0000 	   17.0000 	   29.1747
    5.4093 	   67.4325 	    1.0000 	   17.0000 	   29.4647
    5.1041 	   67.5740 	    1.0000 	   17.0000 	   29.7467
    5.3941 	   67.7200 	    1.0000 	   17.0000 	   30.0388
    5.7298 	   67.8620 	    1.0000 	   17.0000 	   30.3228
    5.5009 	   68.0150 	    1.0000 	   17.0000 	   30.6288
    5.5314 	   68.1735 	    1.0000 	   17.0000 	   30.9458
    5.5467 	   68.3345 	    1.0000 	   17.0000 	   31.2668
    5.4856 	   68.4850 	    1.0000 	   17.0000 	   31.5688
    5.5161 	   68.6430 	    1.0000 	   17.0000 	   31.8849
    5.6077 	   68.7975 	    1.0000 	   17.0000 	   32.1939
    5.5161 	   68.9520 	    1.0000 	   17.0000 	   32.5029
    5.5619 	   69.1035 	    1.0000 	   17.0000 	   32.8059
    5.5161 	   69.2585 	    1.0000 	   17.0000 	   33.1159
    5.2262 	   69.4125 	    1.0000 	   17.0000 	   33.4240
    5.4093 	   69.5725 	    1.0000 	   17.0000 	   33.7440
    5.4704 	   69.7220 	    1.0000 	   17.0000 	   34.0430
    5.4551 	   69.8650 	    1.0000 	   17.0000 	   34.3290
    5.3635 	   70.0090 	    1.0000 	   17.0000 	   34.6170
    5.4093 	   70.1705 	    1.0000 	   17.0000 	   34.9400
    5.6840 	   70.3325 	    1.0000 	   17.0000 	   35.2641
    5.4093 	   70.4900 	    1.0000 	   17.0000 	   35.5791
    5.5619 	   70.6475 	    1.0000 	   17.0000 	   35.8941
    5.4246 	   70.8135 	    1.0000 	   17.0000 	   36.2261
    5.6077 	   70.9625 	    1.0000 	   17.0000 	   36.5241
    5.3788 	   71.1100 	    1.0000 	   17.0000 	   36.8191
    5.3941 	   71.2585 	    1.0000 	   17.0000 	   37.1162
    5.4246 	   71.4060 	    1.0000 	   17.0000 	   37.4112
    5.3941 	   71.5495 	    1.0000 	   17.0000 	   37.6982
    5.4398 	   71.6945 	    1.0000 	   17.0000 	   37.9882
    5.5619 	   71.8445 	    1.0000 	   17.0000 	   38.2882
    5.3178 	   71.9895 	    1.0000 	   17.0000 	   38.5782
    5.2873 	   72.1340 	    1.0000 	   17.0000 	   38.8673
    5.2415 	   72.2795 	    1.0000 	   17.0000 	   39.1583
    4.9363 	   72.4250 	    1.0000 	   17.0000 	   39.4493
    4.9516 	   72.5695 	    1.0000 	   17.0000 	   39.7383
    4.9973 	   72.7195 	    1.0000 	   17.0000 	   40.0383
    4.9058 	   72.8635 	    1.0000 	   17.0000 	   40.3263
    4.5243 	   73.0100 	    1.0000 	   17.0000 	   40.6194
    4.6921 	   73.1580 	    1.0000 	   17.0000 	   40.9154
    4.6311 	   73.3210 	    1.0000 	   17.0000 	   41.2414
    4.4480 	   73.4690 	    1.0000 	   17.0000 	   41.5374
    4.5090 	   73.6180 	    1.0000 	   17.0000 	   41.8354
    4.6311 	   73.7640 	    1.0000 	   17.0000 	   42.1264
    4.5701 	   73.9105 	    1.0000 	   17.0000 	   42.4205
    4.3870 	   74.0640 	    1.0000 	   17.0000 	   42.7275
    4.4175 	   74.2165 	    1.0000 	   17.0000 	   43.0325
    4.3259 	   74.3655 	    1.0000 	   17.0000 	   43.3295
    4.2496 	   74.5115 	    1.0000 	   17.0000 	   43.6225
    4.1123 	   74.6575 	    1.0000 	   17.0000 	   43.9146
    4.2496 	   74.8035 	    1.0000 	   17.0000 	   44.2066
    4.0970 	   74.9485 	    1.0000 	   17.0000 	   44.4966
    4.3107 	   75.0955 	    1.0000 	   17.0000 	   44.7906
    4.1581 	   75.2405 	    1.0000 	   17.0000 	   45.0806
    3.9597 	   75.3875 	    1.0000 	   17.0000 	   45.3746
    3.8987 	   75.5345 	    1.0000 	   17.0000 	   45.6687
    4.0055 	   75.6810 	    1.0000 	   17.0000 	   45.9607
    3.9750 	   75.8275 	    1.0000 	   17.0000 	   46.2547
    3.7461 	   75.9745 	    1.0000 	   17.0000 	   46.5487
    3.8834 	   76.1230 	    1.0000 	   17.0000 	   46.8457
    3.7613 	   76.2720 	    1.0000 	   17.0000 	   47.1427
    3.7919 	   76.4185 	    1.0000 	   17.0000 	   47.4358
    3.7461 	   76.5710 	    1.0000 	   17.0000 	   47.7408
    3.7461 	   76.7200 	    1.0000 	   17.0000 	   48.0388
    3.7156 	   76.8680 	    1.0000 	   17.0000 	   48.3348
    3.6698 	   77.0145 	    1.0000 	   17.0000 	   48.6278
    3.6393 	   77.1680 	    1.0000 	   17.0000 	   48.9348
    3.5019 	   77.3165 	    1.0000 	   17.0000 	   49.2319
    3.6088 	   77.4675 	    1.0000 	   17.0000 	   49.5339
    3.3646 	   77.6295 	    1.0000 	   17.0000 	   49.8579
    3.5172 	   77.7900 	    1.0000 	   17.0000 	   50.1789
    3.3799 	   77.9440 	    1.0000 	   17.0000 	   50.4869
    3.3646 	   78.1005 	    1.0000 	   17.0000 	   50.7999
    3.3036 	   78.2530 	    1.0000 	   17.0000 	   51.1050
    3.3036 	   78.4080 	    1.0000 	   17.0000 	   51.4150
    3.3951 	   78.5605 	    1.0000 	   17.0000 	   51.7200
    3.1510 	   78.7195 	    1.0000 	   17.0000 	   52.0380
    3.4257 	   78.8690 	    1.0000 	   17.0000 	   52.3370
    3.2273 	   79.0180 	    1.0000 	   17.0000 	   52.6350
    3.3188 	   79.1675 	    1.0000 	   17.0000 	   52.9341
    3.1510 	   79.3345 	    1.0000 	   17.0000 	   53.2681
    3.1052 	   79.4885 	    1.0000 	   17.0000 	   53.5761
    3.0747 	   79.6440 	    1.0000 	   17.0000 	   53.8871
    2.9679 	   79.8055 	    1.0000 	   17.0000 	   54.2101
    2.9221 	   79.9635 	    1.0000 	   17.0000 	   54.5262
    2.9374 	   80.1270 	    1.0000 	   17.0000 	   54.8532
    3.0289 	   80.2860 	    1.0000 	   17.0000 	   55.1712
    2.9068 	   80.4495 	    1.0000 	   17.0000 	   55.4982
    2.9679 	   80.6005 	    1.0000 	   17.0000 	   55.8002
    3.0137 	   80.7515 	    1.0000 	   17.0000 	   56.1022
    2.9068 	   80.9055 	    1.0000 	   17.0000 	   56.4103
    2.8916 	   81.0565 	    1.0000 	   17.0000 	   56.7123
    2.9374 	   81.2090 	    1.0000 	   17.0000 	   57.0173
    2.8305 	   81.3605 	    1.0000 	   17.0000 	   57.3203
    2.7695 	   81.5180 	    1.0000 	   17.0000 	   57.6353
    2.8305 	   81.6765 	    1.0000 	   17.0000 	   57.9524
    2.7848 	   81.8300 	    1.0000 	   17.0000 	   58.2594
    2.7390 	   81.9860 	    1.0000 	   17.0000 	   58.5714
    2.7237 	   82.1410 	    1.0000 	   17.0000 	   58.8814
    2.3728 	   82.2955 	    1.0000 	   17.0000 	   59.1904
    2.6627 	   82.4575 	    1.0000 	   17.0000 	   59.5144
    2.6780 	   82.6175 	    1.0000 	   17.0000 	   59.8345
    2.6627 	   82.7730 	    1.0000 	   18.0000 	    0.1455
    2.2354 	   82.9390 	    1.0000 	   18.0000 	    0.4775
    2.6017 	   83.0935 	    1.0000 	   18.0000 	    0.7865
    2.5559 	   83.2470 	    1.0000 	   18.0000 	    1.0935
    2.6017 	   83.4085 	    1.0000 	   18.0000 	    1.4166
    2.5254 	   83.5680 	    1.0000 	   18.0000 	    1.7356
    2.4796 	   83.7315 	    1.0000 	   18.0000 	    2.0626
    2.3575 	   83.8840 	    1.0000 	   18.0000 	    2.3676
    2.6322 	   84.0355 	    1.0000 	   18.0000 	    2.6706
    2.2507 	   84.1885 	    1.0000 	   18.0000 	    2.9766
    2.3270 	   84.3485 	    1.0000 	   18.0000 	    3.2967
    2.2507 	   84.5020 	    1.0000 	   18.0000 	    3.6037
    2.3575 	   84.6570 	    1.0000 	   18.0000 	    3.9137
    2.1439 	   84.8100 	    1.0000 	   18.0000 	    4.2197
    2.2660 	   84.9625 	    1.0000 	   18.0000 	    4.5247
    2.3880 	   85.1160 	    1.0000 	   18.0000 	    4.8307
    2.2049 	   85.2695 	    1.0000 	   18.0000 	    5.1378
    2.1897 	   85.4225 	    1.0000 	   18.0000 	    5.4438
    2.1439 	   85.5910 	    1.0000 	   18.0000 	    5.7808
    2.1897 	   85.7465 	    1.0000 	   18.0000 	    6.0918
    2.0981 	   85.8995 	    1.0000 	   18.0000 	    6.3978
    2.1897 	   86.0540 	    1.0000 	   18.0000 	    6.7069
    2.1592 	   86.2150 	    1.0000 	   18.0000 	    7.0289
    2.0981 	   86.3725 	    1.0000 	   18.0000 	    7.3439
    1.9913 	   86.5320 	    1.0000 	   18.0000 	    7.6629
    2.0371 	   86.6975 	    1.0000 	   18.0000 	    7.9939
    2.1286 	   86.8540 	    1.0000 	   18.0000 	    8.3069
    2.0371 	   87.0095 	    1.0000 	   18.0000 	    8.6180
    2.0218 	   87.1705 	    1.0000 	   18.0000 	    8.9400
    1.9455 	   87.3295 	    1.0000 	   18.0000 	    9.2580
    1.9608 	   87.4860 	    1.0000 	   18.0000 	    9.5710
    1.9150 	   87.6415 	    1.0000 	   18.0000 	    9.8820
    1.7929 	   87.8100 	    1.0000 	   18.0000 	   10.2191
    1.8235 	   87.9715 	    1.0000 	   18.0000 	   10.5421
    1.9303 	   88.1345 	    1.0000 	   18.0000 	   10.8681
    1.9150 	   88.2915 	    1.0000 	   18.0000 	   11.1821
    1.6709 	   88.4595 	    1.0000 	   18.0000 	   11.5181
    1.7166 	   88.6205 	    1.0000 	   18.0000 	   11.8401
    1.7777 	   88.7940 	    1.0000 	   18.0000 	   12.1872
    1.3809 	   88.9575 	    1.0000 	   18.0000 	   12.5142
    1.6556 	   89.1250 	    1.0000 	   18.0000 	   12.8492
    1.6251 	   89.2825 	    1.0000 	   18.0000 	   13.1642
    1.6556 	   89.4425 	    1.0000 	   18.0000 	   13.4842
    1.7319 	   89.6005 	    1.0000 	   18.0000 	   13.8003
    1.5946 	   89.7635 	    1.0000 	   18.0000 	   14.1263
    1.4725 	   89.9305 	    1.0000 	   18.0000 	   14.4603
    1.6556 	   90.0965 	    1.0000 	   18.0000 	   14.7923
    1.5335 	   90.2630 	    1.0000 	   18.0000 	   15.1253
    1.6251 	   90.4230 	    1.0000 	   18.0000 	   15.4454
    1.8387 	   90.5835 	    1.0000 	   18.0000 	   15.7664
    1.4115 	   90.7415 	    1.0000 	   18.0000 	   16.0824
    1.6403 	   90.9145 	    1.0000 	   18.0000 	   16.4284
    1.4420 	   91.0770 	    1.0000 	   18.0000 	   16.7534
    1.3809 	   91.2415 	    1.0000 	   18.0000 	   17.0824
    1.3199 	   91.4025 	    1.0000 	   18.0000 	   17.4045
    1.0605 	   91.5665 	    1.0000 	   18.0000 	   17.7325
    1.3199 	   91.7275 	    1.0000 	   18.0000 	   18.0545
    1.3962 	   91.9000 	    1.0000 	   18.0000 	   18.3995
    1.3809 	   92.0680 	    1.0000 	   18.0000 	   18.7355
    1.3199 	   92.2290 	    1.0000 	   18.0000 	   19.0576
    1.1826 	   92.3940 	    1.0000 	   18.0000 	   19.3876
    1.2589 	   92.5610 	    1.0000 	   18.0000 	   19.7216
    1.2894 	   92.7270 	    1.0000 	   18.0000 	   20.0536
    1.2894 	   92.8905 	    1.0000 	   18.0000 	   20.3806
    1.2894 	   93.0640 	    1.0000 	   18.0000 	   20.7277
    1.2284 	   93.2310 	    1.0000 	   18.0000 	   21.0617
    1.1978 	   93.3925 	    1.0000 	   18.0000 	   21.3847
    1.3199 	   93.5560 	    1.0000 	   18.0000 	   21.7117
    0.8927 	   93.7190 	    1.0000 	   18.0000 	   22.0377
    1.1063 	   93.8830 	    1.0000 	   18.0000 	   22.3647
    0.9384 	   94.0530 	    1.0000 	   18.0000 	   22.7048
    1.2284 	   94.2140 	    1.0000 	   18.0000 	   23.0268
    0.9384 	   94.3735 	    1.0000 	   18.0000 	   23.3458
    0.9995 	   94.5380 	    1.0000 	   18.0000 	   23.6748
    0.8316 	   94.6970 	    1.0000 	   18.0000 	   23.9928
    0.9079 	   94.8605 	    1.0000 	   18.0000 	   24.3199
    0.8621 	   95.0305 	    1.0000 	   18.0000 	   24.6599
    0.8469 	   95.1890 	    1.0000 	   18.0000 	   24.9769
    0.9689 	   95.3590 	    1.0000 	   18.0000 	   25.3169
    0.8011 	   95.5245 	    1.0000 	   18.0000 	   25.6479
    0.7095 	   95.6935 	    1.0000 	   18.0000 	   25.9860
    0.4959 	   95.8575 	    1.0000 	   18.0000 	   26.3140
    0.5112 	   96.0175 	    1.0000 	   18.0000 	   26.6340
    0.7095 	   96.1790 	    1.0000 	   18.0000 	   26.9570
    0.7553 	   96.3455 	    1.0000 	   18.0000 	   27.2900
    0.7401 	   96.5065 	    1.0000 	   18.0000 	   27.6120
    0.5417 	   96.6670 	    1.0000 	   18.0000 	   27.9331
    0.6638 	   96.8330 	    1.0000 	   18.0000 	   28.2651
    0.4959 	   96.9950 	    1.0000 	   18.0000 	   28.5891
    0.4959 	   97.1620 	    1.0000 	   18.0000 	   28.9231
    0.2213 	   97.3245 	    1.0000 	   18.0000 	   29.2481
    0.4959 	   97.4910 	    1.0000 	   18.0000 	   29.5812
    0.4196 	   97.6530 	    1.0000 	   18.0000 	   29.9052
    0.2976 	   97.8205 	    1.0000 	   18.0000 	   30.2402
    0.4807 	   97.9930 	    1.0000 	   18.0000 	   30.5852
    0.1450 	   98.1660 	    1.0000 	   18.0000 	   30.9312
    0.4044 	   98.3335 	    1.0000 	   18.0000 	   31.2663
    0.2365 	   98.5040 	    1.0000 	   18.0000 	   31.6073
    0.0839 	   98.6740 	    1.0000 	   18.0000 	   31.9473
    0.2670 	   98.8400 	    1.0000 	   18.0000 	   32.2793
    0.2823 	   99.0160 	    1.0000 	   18.0000 	   32.6313
    0.2670 	   99.1820 	    1.0000 	   18.0000 	   32.9634
    0.1450 	   99.3520 	    1.0000 	   18.0000 	   33.3034
    0.3281 	   99.5285 	    1.0000 	   18.0000 	   33.6564
   -0.0381 	   99.6950 	    1.0000 	   18.0000 	   33.9894
    0.2518 	   99.8705 	    1.0000 	   18.0000 	   34.3404
   -0.0076 	  100.0440 	    1.0000 	   18.0000 	   34.6875
    0.0381 	  100.2145 	    1.0000 	   18.0000 	   35.0285
    0.1297 	  100.3820 	    1.0000 	   18.0000 	   35.3635
    0.1907 	  100.5465 	    1.0000 	   18.0000 	   35.6925
    0.1755 	  100.7195 	    1.0000 	   18.0000 	   36.0385
    0.1907 	  100.8890 	    1.0000 	   18.0000 	   36.3776
    0.1450 	  101.0600 	    1.0000 	   18.0000 	   36.7196
    0.3433 	  101.2285 	    1.0000 	   18.0000 	   37.0566
    0.2670 	  101.4055 	    1.0000 	   18.0000 	   37.4106
    0.1907 	  101.5725 	    1.0000 	   18.0000 	   37.7446
    0.1907 	  101.7440 	    1.0000 	   18.0000 	   38.0866
    0.0839 	  101.9090 	    1.0000 	   18.0000 	   38.4177
    0.1297 	  102.0765 	    1.0000 	   18.0000 	   38.7527
    0.0687 	  102.2485 	    1.0000 	   18.0000 	   39.0967
    0.0534 	  102.4170 	    1.0000 	   18.0000 	   39.4337
    0.0229 	  102.5855 	    1.0000 	   18.0000 	   39.7697
    0.2518 	  102.7560 	    1.0000 	   18.0000 	   40.1108
    0.0687 	  102.9340 	    1.0000 	   18.0000 	   40.4668
    0.0839 	  103.1010 	    1.0000 	   18.0000 	   40.8008
    0.0687 	  103.2715 	    1.0000 	   18.0000 	   41.1418
    0.1297 	  103.4440 	    1.0000 	   18.0000 	   41.4868
    0.0381 	  103.6200 	    1.0000 	   18.0000 	   41.8389
    0.0839 	  103.7940 	    1.0000 	   18.0000 	   42.1869
    0.1144 	  103.9690 	    1.0000 	   18.0000 	   42.5369
    0.0839 	  104.1485 	    1.0000 	   18.0000 	   42.8959
    0.0992 	  104.3240 	    1.0000 	   18.0000 	   43.2469
    0.0229 	  104.4915 	    1.0000 	   18.0000 	   43.5820
    0.0229 	  104.6585 	    1.0000 	   18.0000 	   43.9160
    0.0992 	  104.8330 	    1.0000 	   18.0000 	   44.2650
    0.0229 	  105.0010 	    1.0000 	   18.0000 	   44.6010
   -0.1907 	  105.1710 	    1.0000 	   18.0000 	   44.9410
    0.2060 	  105.3385 	    1.0000 	   18.0000 	   45.2761
    0.2213 	  105.5055 	    1.0000 	   18.0000 	   45.6101
   -0.3738 	  105.6725 	    1.0000 	   18.0000 	   45.9441
    0.1755 	  105.8490 	    1.0000 	   18.0000 	   46.2971
   -0.0076 	  106.0190 	    1.0000 	   18.0000 	   46.6371
    0.0381 	  106.1865 	    1.0000 	   18.0000 	   46.9722
    0.1297 	  106.3715 	    1.0000 	   18.0000 	   47.3422
    0.0992 	  106.5465 	    1.0000 	   18.0000 	   47.6922
    0.1144 	  106.7195 	    1.0000 	   18.0000 	   48.0382
    0.0839 	  106.8940 	    1.0000 	   18.0000 	   48.3872
    0.0839 	  107.0655 	    1.0000 	   18.0000 	   48.7303
    0.1450 	  107.2345 	    1.0000 	   18.0000 	   49.0683
    0.1755 	  107.4040 	    1.0000 	   18.0000 	   49.4073
    0.1297 	  107.5825 	    1.0000 	   18.0000 	   49.7643
    0.0687 	  107.7520 	    1.0000 	   18.0000 	   50.1033
    0.1144 	  107.9210 	    1.0000 	   18.0000 	   50.4414
    0.0687 	  108.0900 	    1.0000 	   18.0000 	   50.7794
   -0.0229 	  108.2660 	    1.0000 	   18.0000 	   51.1314
    0.0992 	  108.4455 	    1.0000 	   18.0000 	   51.4904
    0.1450 	  108.6195 	    1.0000 	   18.0000 	   51.8384
    0.0381 	  108.7970 	    1.0000 	   18.0000 	   52.1935
    0.0992 	  108.9740 	    1.0000 	   18.0000 	   52.5475
    0.2670 	  109.1445 	    1.0000 	   18.0000 	   52.8885
    0.0076 	  109.3185 	    1.0000 	   18.0000 	   53.2365
    0.1450 	  109.4945 	    1.0000 	   18.0000 	   53.5885
    0.0839 	  109.6655 	    1.0000 	   18.0000 	   53.9306
    0.0839 	  109.8420 	    1.0000 	   18.0000 	   54.2836
    0.2823 	  110.0175 	    1.0000 	   18.0000 	   54.6346
    0.1144 	  110.2045 	    1.0000 	   18.0000 	   55.0086
    0.0229 	  110.3875 	    1.0000 	   18.0000 	   55.3746
    0.0687 	  110.5615 	    1.0000 	   18.0000 	   55.7227
    0.1144 	  110.7355 	    1.0000 	   18.0000 	   56.0707
    0.2213 	  110.9165 	    1.0000 	   18.0000 	   56.4327
   -0.0992 	  111.0975 	    1.0000 	   18.0000 	   56.7947
    0.0839 	  111.2705 	    1.0000 	   18.0000 	   57.1397
    0.2060 	  111.4430 	    1.0000 	   18.0000 	   57.4848
   -0.2365 	  111.6155 	    1.0000 	   18.0000 	   57.8298
    0.0229 	  111.7910 	    1.0000 	   18.0000 	   58.1808
    0.1602 	  111.9640 	    1.0000 	   18.0000 	   58.5268
    0.0839 	  112.1400 	    1.0000 	   18.0000 	   58.8788
    0.0839 	  112.3160 	    1.0000 	   18.0000 	   59.2309
    0.1907 	  112.4875 	    1.0000 	   18.0000 	   59.5739
   -0.0687 	  112.6605 	    1.0000 	   18.0000 	   59.9199
    0.0229 	  112.8315 	    1.0000 	   19.0000 	    0.2619
    0.1144 	  113.0100 	    1.0000 	   19.0000 	    0.6189
    0.1450 	  113.1915 	    1.0000 	   19.0000 	    0.9820
    0.0076 	  113.3640 	    1.0000 	   19.0000 	    1.3270
    0.1297 	  113.5370 	    1.0000 	   19.0000 	    1.6730
    0.0839 	  113.7105 	    1.0000 	   19.0000 	    2.0200
    0.1450 	  113.8860 	    1.0000 	   19.0000 	    2.3710
    0.0534 	  114.0625 	    1.0000 	   19.0000 	    2.7241
    0.1144 	  114.2465 	    1.0000 	   19.0000 	    3.0921
    0.1144 	  114.4205 	    1.0000 	   19.0000 	    3.4401
    0.0229 	  114.5955 	    1.0000 	   19.0000 	    3.7901
    0.0839 	  114.7760 	    1.0000 	   19.0000 	    4.1511
    0.1907 	  114.9505 	    1.0000 	   19.0000 	    4.5002
    0.0687 	  115.1290 	    1.0000 	   19.0000 	    4.8572
    0.0992 	  115.3085 	    1.0000 	   19.0000 	    5.2162
    0.0229 	  115.4925 	    1.0000 	   19.0000 	    5.5842
   -0.0076 	  115.6695 	    1.0000 	   19.0000 	    5.9382
    0.1907 	  115.8490 	    1.0000 	   19.0000 	    6.2973
    0.2213 	  116.0270 	    1.0000 	   19.0000 	    6.6533
    0.1450 	  116.2065 	    1.0000 	   19.0000 	    7.0123