File: instron/10_grey_2W15L_drag30_spd15.txt
Thayer School of Engineering        Instron 4442 Mechanical Testing System
6/28/2018 1:31:21 AM

  Force (N)	Extension (mm)	Not Used	Not Used	Not Used	     Hour	    Minute	    Second
    0.0076 	    0.2565 	    1.0000 	   31.0000 	   36.9822
    0.3738 	    0.3810 	    1.0000 	   31.0000 	   37.4802
    0.1297 	    0.5113 	    1.0000 	   31.0000 	   38.0013
   -0.0992 	    0.6198 	    1.0000 	   31.0000 	   38.4353
    0.0534 	    0.7453 	    1.0000 	   31.0000 	   38.9373
   -0.0076 	    0.8410 	    1.0000 	   31.0000 	   39.3203
    0.0992 	    0.9285 	    1.0000 	   31.0000 	   39.6704
   -0.0076 	    1.0113 	    1.0000 	   31.0000 	   40.0014
    0.1144 	    1.0930 	    1.0000 	   31.0000 	   40.3284
    0.0992 	    1.1780 	    1.0000 	   31.0000 	   40.6684
    0.0687 	    1.2593 	    1.0000 	   31.0000 	   40.9934
    0.0076 	    1.3418 	    1.0000 	   31.0000 	   41.3234
    0.1297 	    1.4200 	    1.0000 	   31.0000 	   41.6365
    0.2060 	    1.4993 	    1.0000 	   31.0000 	   41.9535
    0.1907 	    1.5783 	    1.0000 	   31.0000 	   42.2695
    0.0076 	    1.6580 	    1.0000 	   31.0000 	   42.5885
   -0.0687 	    1.7385 	    1.0000 	   31.0000 	   42.9105
    0.2213 	    1.8190 	    1.0000 	   31.0000 	   43.2326
    0.0839 	    1.8973 	    1.0000 	   31.0000 	   43.5456
    0.0687 	    1.9775 	    1.0000 	   31.0000 	   43.8666
    0.0839 	    2.0568 	    1.0000 	   31.0000 	   44.1836
    0.0534 	    2.1350 	    1.0000 	   31.0000 	   44.4966
    0.1144 	    2.2135 	    1.0000 	   31.0000 	   44.8106
    0.2213 	    2.2950 	    1.0000 	   31.0000 	   45.1367
   -0.0229 	    2.3730 	    1.0000 	   31.0000 	   45.4487
   -0.0381 	    2.4533 	    1.0000 	   31.0000 	   45.7697
    0.1297 	    2.5360 	    1.0000 	   31.0000 	   46.1007
    0.1602 	    2.6150 	    1.0000 	   31.0000 	   46.4167
    0.0992 	    2.7035 	    1.0000 	   31.0000 	   46.7708
   -0.2213 	    2.7843 	    1.0000 	   31.0000 	   47.0938
    0.1144 	    2.8645 	    1.0000 	   31.0000 	   47.4148
   -0.0229 	    2.9460 	    1.0000 	   31.0000 	   47.7408
    0.1907 	    3.0280 	    1.0000 	   31.0000 	   48.0688
    0.1602 	    3.1100 	    1.0000 	   31.0000 	   48.3969
    0.1144 	    3.1915 	    1.0000 	   31.0000 	   48.7229
    0.0534 	    3.2743 	    1.0000 	   31.0000 	   49.0529
    0.0839 	    3.3558 	    1.0000 	   31.0000 	   49.3789
   -0.2365 	    3.4380 	    1.0000 	   31.0000 	   49.7079
    0.1450 	    3.5200 	    1.0000 	   31.0000 	   50.0359
    0.1144 	    3.6013 	    1.0000 	   31.0000 	   50.3610
    0.0534 	    3.6840 	    1.0000 	   31.0000 	   50.6920
    0.0992 	    3.7705 	    1.0000 	   31.0000 	   51.0380
    0.2213 	    3.8530 	    1.0000 	   31.0000 	   51.3680
    0.1907 	    3.9350 	    1.0000 	   31.0000 	   51.6960
    0.3433 	    4.0175 	    1.0000 	   31.0000 	   52.0261
    0.0381 	    4.0998 	    1.0000 	   31.0000 	   52.3551
   -0.0534 	    4.1800 	    1.0000 	   31.0000 	   52.6761
    0.1297 	    4.2643 	    1.0000 	   31.0000 	   53.0131
   -0.0839 	    4.3498 	    1.0000 	   31.0000 	   53.3551
    0.0839 	    4.4355 	    1.0000 	   31.0000 	   53.6982
    0.0992 	    4.5188 	    1.0000 	   31.0000 	   54.0312
    0.0992 	    4.6015 	    1.0000 	   31.0000 	   54.3622
    0.1297 	    4.6860 	    1.0000 	   31.0000 	   54.7002
    0.1755 	    4.7713 	    1.0000 	   31.0000 	   55.0412
    0.1755 	    4.8575 	    1.0000 	   31.0000 	   55.3862
    0.1450 	    4.9433 	    1.0000 	   31.0000 	   55.7293
    0.1144 	    5.0288 	    1.0000 	   31.0000 	   56.0713
   -0.1755 	    5.1130 	    1.0000 	   31.0000 	   56.4083
    0.0839 	    5.1995 	    1.0000 	   31.0000 	   56.7543
    0.1907 	    5.2865 	    1.0000 	   31.0000 	   57.1023
    0.0992 	    5.3730 	    1.0000 	   31.0000 	   57.4484
    0.0076 	    5.4603 	    1.0000 	   31.0000 	   57.7974
    0.0381 	    5.5455 	    1.0000 	   31.0000 	   58.1384
    0.1297 	    5.6325 	    1.0000 	   31.0000 	   58.4864
    0.0229 	    5.7200 	    1.0000 	   31.0000 	   58.8364
    0.1907 	    5.8063 	    1.0000 	   31.0000 	   59.1815
   -0.0229 	    5.8943 	    1.0000 	   31.0000 	   59.5335
    0.1907 	    5.9815 	    1.0000 	   31.0000 	   59.8825
    0.2670 	    6.0695 	    1.0000 	   32.0000 	    0.2345
    0.0381 	    6.1565 	    1.0000 	   32.0000 	    0.5825
    0.0534 	    6.2450 	    1.0000 	   32.0000 	    0.9366
    0.1297 	    6.3345 	    1.0000 	   32.0000 	    1.2946
    0.1907 	    6.4230 	    1.0000 	   32.0000 	    1.6486
    0.2365 	    6.5123 	    1.0000 	   32.0000 	    2.0056
    0.0381 	    6.5923 	    1.0000 	   32.0000 	    2.3256
   -0.0687 	    6.6740 	    1.0000 	   32.0000 	    2.6527
    0.0076 	    6.7635 	    1.0000 	   32.0000 	    3.0107
   -0.0534 	    6.8530 	    1.0000 	   32.0000 	    3.3687
    0.2060 	    6.9420 	    1.0000 	   32.0000 	    3.7247
    0.1602 	    7.0325 	    1.0000 	   32.0000 	    4.0867
    0.1755 	    7.1230 	    1.0000 	   32.0000 	    4.4488
    0.0839 	    7.2133 	    1.0000 	   32.0000 	    4.8098
    0.1144 	    7.3033 	    1.0000 	   32.0000 	    5.1698
    0.1907 	    7.3945 	    1.0000 	   32.0000 	    5.5348
    0.0839 	    7.4845 	    1.0000 	   32.0000 	    5.8949
    0.1602 	    7.5753 	    1.0000 	   32.0000 	    6.2579
    0.2365 	    7.6665 	    1.0000 	   32.0000 	    6.6219
    0.1450 	    7.7573 	    1.0000 	   32.0000 	    6.9849
    0.2823 	    7.8495 	    1.0000 	   32.0000 	    7.3539
    0.2365 	    7.9398 	    1.0000 	   32.0000 	    7.7150
    0.2670 	    8.0265 	    1.0000 	   32.0000 	    8.0620
   -0.1144 	    8.1120 	    1.0000 	   32.0000 	    8.4040
    0.2365 	    8.2025 	    1.0000 	   32.0000 	    8.7660
    0.1450 	    8.2870 	    1.0000 	   32.0000 	    9.1040
    0.2213 	    8.3778 	    1.0000 	   32.0000 	    9.4671
   -0.0534 	    8.4663 	    1.0000 	   32.0000 	    9.8211
    0.0229 	    8.5478 	    1.0000 	   32.0000 	   10.1471
    0.4501 	    8.6320 	    1.0000 	   32.0000 	   10.4841
    0.3281 	    8.7165 	    1.0000 	   32.0000 	   10.8221
    0.2670 	    8.8070 	    1.0000 	   32.0000 	   11.1842
    0.3738 	    8.9015 	    1.0000 	   32.0000 	   11.5622
    0.3128 	    8.9903 	    1.0000 	   32.0000 	   11.9172
    0.4044 	    9.0838 	    1.0000 	   32.0000 	   12.2912
    0.5264 	    9.1780 	    1.0000 	   32.0000 	   12.6682
    0.4349 	    9.2720 	    1.0000 	   32.0000 	   13.0443
    0.5417 	    9.3615 	    1.0000 	   32.0000 	   13.4023
    0.2213 	    9.4508 	    1.0000 	   32.0000 	   13.7593
    0.5875 	    9.5408 	    1.0000 	   32.0000 	   14.1193
    0.4807 	    9.6300 	    1.0000 	   32.0000 	   14.4763
    0.6790 	    9.7238 	    1.0000 	   32.0000 	   14.8514
    0.5875 	    9.8155 	    1.0000 	   32.0000 	   15.2184
    0.6943 	    9.9013 	    1.0000 	   32.0000 	   15.5614
    0.6943 	    9.9930 	    1.0000 	   32.0000 	   15.9284
    0.9079 	   10.0860 	    1.0000 	   32.0000 	   16.3004
    0.8774 	   10.1788 	    1.0000 	   32.0000 	   16.6715
    0.9079 	   10.2720 	    1.0000 	   32.0000 	   17.0445
    0.9995 	   10.3635 	    1.0000 	   32.0000 	   17.4105
    1.0147 	   10.4498 	    1.0000 	   32.0000 	   17.7555
    0.8927 	   10.5348 	    1.0000 	   32.0000 	   18.0956
    0.7248 	   10.6238 	    1.0000 	   32.0000 	   18.4516
    1.0452 	   10.7160 	    1.0000 	   32.0000 	   18.8206
    0.9689 	   10.8078 	    1.0000 	   32.0000 	   19.1876
    1.1978 	   10.9005 	    1.0000 	   32.0000 	   19.5586
    1.1368 	   10.9928 	    1.0000 	   32.0000 	   19.9277
    1.0758 	   11.0848 	    1.0000 	   32.0000 	   20.2957
    1.1215 	   11.1800 	    1.0000 	   32.0000 	   20.6767
    1.1826 	   11.2725 	    1.0000 	   32.0000 	   21.0467
    1.1826 	   11.3578 	    1.0000 	   32.0000 	   21.3877
    1.1368 	   11.4510 	    1.0000 	   32.0000 	   21.7608
    1.2436 	   11.5420 	    1.0000 	   32.0000 	   22.1248
    1.1673 	   11.6345 	    1.0000 	   32.0000 	   22.4948
    1.2894 	   11.7300 	    1.0000 	   32.0000 	   22.8768
    1.1978 	   11.8145 	    1.0000 	   32.0000 	   23.2148
    1.2284 	   11.9043 	    1.0000 	   32.0000 	   23.5739
    1.2589 	   11.9990 	    1.0000 	   32.0000 	   23.9519
    1.2589 	   12.0938 	    1.0000 	   32.0000 	   24.3309
    1.0758 	   12.1833 	    1.0000 	   32.0000 	   24.6889
    1.3046 	   12.2780 	    1.0000 	   32.0000 	   25.0679
    0.9995 	   12.3720 	    1.0000 	   32.0000 	   25.4440
    1.0452 	   12.4663 	    1.0000 	   32.0000 	   25.8210
    1.3046 	   12.5590 	    1.0000 	   32.0000 	   26.1920
    1.3504 	   12.6525 	    1.0000 	   32.0000 	   26.5660
    1.5030 	   12.7450 	    1.0000 	   32.0000 	   26.9361
    1.3809 	   12.8368 	    1.0000 	   32.0000 	   27.3031
    1.4420 	   12.9193 	    1.0000 	   32.0000 	   27.6331
    1.6098 	   13.0025 	    1.0000 	   32.0000 	   27.9661
    1.6251 	   13.0865 	    1.0000 	   32.0000 	   28.3021
    1.5030 	   13.1788 	    1.0000 	   32.0000 	   28.6712
    1.7319 	   13.2715 	    1.0000 	   32.0000 	   29.0422
    1.5793 	   13.3665 	    1.0000 	   32.0000 	   29.4222
    1.5640 	   13.4615 	    1.0000 	   32.0000 	   29.8022
    1.5030 	   13.5573 	    1.0000 	   32.0000 	   30.1852
    1.6556 	   13.6515 	    1.0000 	   32.0000 	   30.5623
    1.7166 	   13.7473 	    1.0000 	   32.0000 	   30.9453
    1.5793 	   13.8455 	    1.0000 	   32.0000 	   31.3383
    1.7472 	   13.9398 	    1.0000 	   32.0000 	   31.7153
    1.6251 	   14.0370 	    1.0000 	   32.0000 	   32.1044
    1.5946 	   14.1310 	    1.0000 	   32.0000 	   32.4804
    1.6251 	   14.2268 	    1.0000 	   32.0000 	   32.8634
    1.7166 	   14.3230 	    1.0000 	   32.0000 	   33.2484
    1.7624 	   14.4200 	    1.0000 	   32.0000 	   33.6364
    1.7319 	   14.5165 	    1.0000 	   32.0000 	   34.0225
    1.8082 	   14.6133 	    1.0000 	   32.0000 	   34.4095
    1.6403 	   14.7093 	    1.0000 	   32.0000 	   34.7935
    1.8387 	   14.8048 	    1.0000 	   32.0000 	   35.1755
    1.7624 	   14.8993 	    1.0000 	   32.0000 	   35.5536
    1.7777 	   14.9893 	    1.0000 	   32.0000 	   35.9136
    1.9303 	   15.0818 	    1.0000 	   32.0000 	   36.2836
    1.5946 	   15.1685 	    1.0000 	   32.0000 	   36.6306
    2.0218 	   15.2555 	    1.0000 	   32.0000 	   36.9786
    2.0981 	   15.3485 	    1.0000 	   32.0000 	   37.3507
    1.9913 	   15.4455 	    1.0000 	   32.0000 	   37.7387
    1.8235 	   15.5430 	    1.0000 	   32.0000 	   38.1287
    1.8997 	   15.6408 	    1.0000 	   32.0000 	   38.5197
    2.0829 	   15.7378 	    1.0000 	   32.0000 	   38.9077
    2.1286 	   15.8383 	    1.0000 	   32.0000 	   39.3098
    2.0523 	   15.9350 	    1.0000 	   32.0000 	   39.6968
    2.1286 	   16.0345 	    1.0000 	   32.0000 	   40.0948
    2.0829 	   16.1310 	    1.0000 	   32.0000 	   40.4808
    2.1897 	   16.2283 	    1.0000 	   32.0000 	   40.8699
    2.1134 	   16.3295 	    1.0000 	   32.0000 	   41.2739
    2.0981 	   16.4272 	    1.0000 	   32.0000 	   41.6649
    2.0829 	   16.5260 	    1.0000 	   32.0000 	   42.0599
    1.7624 	   16.6205 	    1.0000 	   32.0000 	   42.4379
    2.2049 	   16.7200 	    1.0000 	   32.0000 	   42.8360
    1.8997 	   16.8208 	    1.0000 	   32.0000 	   43.2390
    2.2202 	   16.9193 	    1.0000 	   32.0000 	   43.6330
    2.2202 	   17.0175 	    1.0000 	   32.0000 	   44.0260
    2.2660 	   17.1168 	    1.0000 	   32.0000 	   44.4231
    2.2354 	   17.2140 	    1.0000 	   32.0000 	   44.8121
    2.2660 	   17.3125 	    1.0000 	   32.0000 	   45.2061
    2.2354 	   17.4043 	    1.0000 	   32.0000 	   45.5731
    2.2660 	   17.4928 	    1.0000 	   32.0000 	   45.9271
    2.2965 	   17.5930 	    1.0000 	   32.0000 	   46.3282
    2.2812 	   17.6915 	    1.0000 	   32.0000 	   46.7222
    2.3423 	   17.7917 	    1.0000 	   32.0000 	   47.1232
    2.4643 	   17.8860 	    1.0000 	   32.0000 	   47.5002
    2.4033 	   17.9765 	    1.0000 	   32.0000 	   47.8623
    2.3423 	   18.0778 	    1.0000 	   32.0000 	   48.2673
    2.3728 	   18.1795 	    1.0000 	   32.0000 	   48.6743
    2.4033 	   18.2805 	    1.0000 	   32.0000 	   49.0783
    2.5254 	   18.3790 	    1.0000 	   32.0000 	   49.4723
    2.5101 	   18.4785 	    1.0000 	   32.0000 	   49.8704
    2.4338 	   18.5778 	    1.0000 	   32.0000 	   50.2674
    2.4491 	   18.6728 	    1.0000 	   32.0000 	   50.6474
    2.4948 	   18.7660 	    1.0000 	   32.0000 	   51.0204
    2.6474 	   18.8648 	    1.0000 	   32.0000 	   51.4155
    2.6932 	   18.9603 	    1.0000 	   32.0000 	   51.7975
    2.6017 	   19.0538 	    1.0000 	   32.0000 	   52.1715
    2.5559 	   19.1490 	    1.0000 	   32.0000 	   52.5525
    2.7237 	   19.2498 	    1.0000 	   32.0000 	   52.9555
    2.7085 	   19.3515 	    1.0000 	   32.0000 	   53.3626
    2.5711 	   19.4420 	    1.0000 	   32.0000 	   53.7246
    2.6322 	   19.5328 	    1.0000 	   32.0000 	   54.0876
    2.7237 	   19.6228 	    1.0000 	   32.0000 	   54.4476
    2.8305 	   19.7205 	    1.0000 	   32.0000 	   54.8387
    2.6780 	   19.8208 	    1.0000 	   32.0000 	   55.2397
    2.7085 	   19.9215 	    1.0000 	   32.0000 	   55.6427
    2.7543 	   20.0230 	    1.0000 	   32.0000 	   56.0487
    2.7237 	   20.1238 	    1.0000 	   32.0000 	   56.4517
    2.8458 	   20.2245 	    1.0000 	   32.0000 	   56.8548
    2.8000 	   20.3300 	    1.0000 	   32.0000 	   57.2768
    2.8458 	   20.4313 	    1.0000 	   32.0000 	   57.6818
    2.7695 	   20.5323 	    1.0000 	   32.0000 	   58.0858
    2.8305 	   20.6310 	    1.0000 	   32.0000 	   58.4809
    2.9679 	   20.7225 	    1.0000 	   32.0000 	   58.8459
    2.9374 	   20.8165 	    1.0000 	   32.0000 	   59.2219
    2.6627 	   20.9180 	    1.0000 	   32.0000 	   59.6279
    3.1357 	   21.0203 	    1.0000 	   33.0000 	    0.0369
    2.8763 	   21.1198 	    1.0000 	   33.0000 	    0.4350
    2.9679 	   21.2130 	    1.0000 	   33.0000 	    0.8080
    3.0594 	   21.3053 	    1.0000 	   33.0000 	    1.1770
    3.0747 	   21.4008 	    1.0000 	   33.0000 	    1.5590
    2.8763 	   21.4933 	    1.0000 	   33.0000 	    1.9291
    3.0442 	   21.5870 	    1.0000 	   33.0000 	    2.3041
    3.1662 	   21.6893 	    1.0000 	   33.0000 	    2.7131
    3.1205 	   21.7913 	    1.0000 	   33.0000 	    3.1211
    3.1815 	   21.8863 	    1.0000 	   33.0000 	    3.5011
    3.1357 	   21.9873 	    1.0000 	   33.0000 	    3.9052
    3.2425 	   22.0853 	    1.0000 	   33.0000 	    4.2972
    3.1968 	   22.1805 	    1.0000 	   33.0000 	    4.6782
    3.1662 	   22.2828 	    1.0000 	   33.0000 	    5.0872
    2.9374 	   22.3863 	    1.0000 	   33.0000 	    5.5013
    3.1815 	   22.4870 	    1.0000 	   33.0000 	    5.9043
    3.2120 	   22.5880 	    1.0000 	   33.0000 	    6.3083
    3.3494 	   22.6905 	    1.0000 	   33.0000 	    6.7183
    3.3036 	   22.7940 	    1.0000 	   33.0000 	    7.1324
    3.4714 	   22.8895 	    1.0000 	   33.0000 	    7.5144
    3.3341 	   22.9933 	    1.0000 	   33.0000 	    7.9294
    3.3494 	   23.0993 	    1.0000 	   33.0000 	    8.3534
    3.2883 	   23.2028 	    1.0000 	   33.0000 	    8.7674
    3.4104 	   23.3073 	    1.0000 	   33.0000 	    9.1855
    3.2120 	   23.4118 	    1.0000 	   33.0000 	    9.6035
    3.3951 	   23.5133 	    1.0000 	   33.0000 	   10.0095
    3.4257 	   23.6185 	    1.0000 	   33.0000 	   10.4305
    3.4714 	   23.7133 	    1.0000 	   33.0000 	   10.8096
    3.5630 	   23.8080 	    1.0000 	   33.0000 	   11.1886
    3.4409 	   23.9025 	    1.0000 	   33.0000 	   11.5666
    3.7308 	   23.9995 	    1.0000 	   33.0000 	   11.9546
    3.5782 	   24.0983 	    1.0000 	   33.0000 	   12.3497
    3.5019 	   24.1955 	    1.0000 	   33.0000 	   12.7387
    3.6698 	   24.2985 	    1.0000 	   33.0000 	   13.1507
    3.6240 	   24.3970 	    1.0000 	   33.0000 	   13.5447
    3.3799 	   24.4953 	    1.0000 	   33.0000 	   13.9377
    3.6240 	   24.5930 	    1.0000 	   33.0000 	   14.3288
    3.6851 	   24.6880 	    1.0000 	   33.0000 	   14.7088
    3.7613 	   24.7835 	    1.0000 	   33.0000 	   15.0908
    3.8376 	   24.8778 	    1.0000 	   33.0000 	   15.4678
    3.9139 	   24.9723 	    1.0000 	   33.0000 	   15.8459
    3.6851 	   25.0680 	    1.0000 	   33.0000 	   16.2279
    3.9139 	   25.1615 	    1.0000 	   33.0000 	   16.6019
    3.8224 	   25.2558 	    1.0000 	   33.0000 	   16.9789
    3.8376 	   25.3498 	    1.0000 	   33.0000 	   17.3549
    3.7308 	   25.4503 	    1.0000 	   33.0000 	   17.7570
    3.9902 	   25.5460 	    1.0000 	   33.0000 	   18.1400
    3.8682 	   25.6405 	    1.0000 	   33.0000 	   18.5180
    4.1123 	   25.7430 	    1.0000 	   33.0000 	   18.9280
    4.0208 	   25.8488 	    1.0000 	   33.0000 	   19.3511
    3.9597 	   25.9478 	    1.0000 	   33.0000 	   19.7471
    4.0055 	   26.0468 	    1.0000 	   33.0000 	   20.1431
    3.9750 	   26.1448 	    1.0000 	   33.0000 	   20.5351
    4.1123 	   26.2448 	    1.0000 	   33.0000 	   20.9341
    4.3107 	   26.3505 	    1.0000 	   33.0000 	   21.3582
    4.0818 	   26.4553 	    1.0000 	   33.0000 	   21.7772
    4.1886 	   26.5625 	    1.0000 	   33.0000 	   22.2062
    4.2039 	   26.6603 	    1.0000 	   33.0000 	   22.5972
    4.1733 	   26.7600 	    1.0000 	   33.0000 	   22.9963
    4.2649 	   26.8668 	    1.0000 	   33.0000 	   23.4233
    4.1581 	   26.9668 	    1.0000 	   33.0000 	   23.8233
    4.2344 	   27.0638 	    1.0000 	   33.0000 	   24.2113
    4.2191 	   27.1668 	    1.0000 	   33.0000 	   24.6234
    4.2954 	   27.2738 	    1.0000 	   33.0000 	   25.0514
    4.2344 	   27.3810 	    1.0000 	   33.0000 	   25.4804
    4.5853 	   27.4820 	    1.0000 	   33.0000 	   25.8844
    4.3565 	   27.5910 	    1.0000 	   33.0000 	   26.3205
    4.4785 	   27.6915 	    1.0000 	   33.0000 	   26.7225
    4.4175 	   27.7905 	    1.0000 	   33.0000 	   27.1185
    4.6006 	   27.8888 	    1.0000 	   33.0000 	   27.5115
    4.5548 	   27.9905 	    1.0000 	   33.0000 	   27.9185
    4.4175 	   28.0900 	    1.0000 	   33.0000 	   28.3166
    4.4327 	   28.1963 	    1.0000 	   33.0000 	   28.7416
    4.5090 	   28.2975 	    1.0000 	   33.0000 	   29.1466
    4.5853 	   28.3973 	    1.0000 	   33.0000 	   29.5456
    4.7227 	   28.4968 	    1.0000 	   33.0000 	   29.9437
    4.6616 	   28.6028 	    1.0000 	   33.0000 	   30.3677
    4.6616 	   28.7033 	    1.0000 	   33.0000 	   30.7697
    4.6616 	   28.8008 	    1.0000 	   33.0000 	   31.1597
    4.8295 	   28.9013 	    1.0000 	   33.0000 	   31.5618
    4.8142 	   28.9983 	    1.0000 	   33.0000 	   31.9498
    4.7532 	   29.0980 	    1.0000 	   33.0000 	   32.3488
    4.9210 	   29.1953 	    1.0000 	   33.0000 	   32.7378
    4.8600 	   29.2985 	    1.0000 	   33.0000 	   33.1508
    4.9210 	   29.3978 	    1.0000 	   33.0000 	   33.5479
    4.6464 	   29.4983 	    1.0000 	   33.0000 	   33.9489
    4.9058 	   29.5965 	    1.0000 	   33.0000 	   34.3419
    5.1041 	   29.6998 	    1.0000 	   33.0000 	   34.7549
    5.0431 	   29.8018 	    1.0000 	   33.0000 	   35.1630
    4.9821 	   29.9055 	    1.0000 	   33.0000 	   35.5780
    4.9821 	   30.0033 	    1.0000 	   33.0000 	   35.9690
    4.7990 	   30.1073 	    1.0000 	   33.0000 	   36.3850
    5.1194 	   30.2063 	    1.0000 	   33.0000 	   36.7811
    5.2262 	   30.3058 	    1.0000 	   33.0000 	   37.1791
    5.0126 	   30.4095 	    1.0000 	   33.0000 	   37.5941
    5.3025 	   30.5120 	    1.0000 	   33.0000 	   38.0041
    5.1957 	   30.6165 	    1.0000 	   33.0000 	   38.4221
    5.2262 	   30.7218 	    1.0000 	   33.0000 	   38.8432
    5.2567 	   30.8295 	    1.0000 	   33.0000 	   39.2742
    5.3178 	   30.9408 	    1.0000 	   33.0000 	   39.7192
    5.3025 	   31.0490 	    1.0000 	   33.0000 	   40.1522
    5.2567 	   31.1515 	    1.0000 	   33.0000 	   40.5623
    5.3330 	   31.2623 	    1.0000 	   33.0000 	   41.0053
    5.4246 	   31.3623 	    1.0000 	   33.0000 	   41.4053
    5.4093 	   31.4660 	    1.0000 	   33.0000 	   41.8203
    5.5314 	   31.5780 	    1.0000 	   33.0000 	   42.2684
    5.5314 	   31.6768 	    1.0000 	   33.0000 	   42.6634
    5.6687 	   31.7848 	    1.0000 	   33.0000 	   43.0954
    5.7145 	   31.8868 	    1.0000 	   33.0000 	   43.5034
    5.5924 	   31.9895 	    1.0000 	   33.0000 	   43.9145
    5.5619 	   32.0920 	    1.0000 	   33.0000 	   44.3235
    5.6687 	   32.1995 	    1.0000 	   33.0000 	   44.7545
    5.3025 	   32.3025 	    1.0000 	   33.0000 	   45.1665
    5.6687 	   32.4085 	    1.0000 	   33.0000 	   45.5906
    5.6687 	   32.5163 	    1.0000 	   33.0000 	   46.0216
    5.7908 	   32.6235 	    1.0000 	   33.0000 	   46.4506
    5.9129 	   32.7265 	    1.0000 	   33.0000 	   46.8626
    5.9129 	   32.8302 	    1.0000 	   33.0000 	   47.2776
    5.9129 	   32.9423 	    1.0000 	   33.0000 	   47.7257
    5.8824 	   33.0480 	    1.0000 	   33.0000 	   48.1487
    5.9739 	   33.1605 	    1.0000 	   33.0000 	   48.5987
    5.8061 	   33.2625 	    1.0000 	   33.0000 	   49.0068
    6.1723 	   33.3628 	    1.0000 	   33.0000 	   49.4078
    6.0197 	   33.4640 	    1.0000 	   33.0000 	   49.8128
    6.1875 	   33.5650 	    1.0000 	   33.0000 	   50.2168
    6.1418 	   33.6658 	    1.0000 	   33.0000 	   50.6198
    6.2181 	   33.7663 	    1.0000 	   33.0000 	   51.0219
    6.2943 	   33.8668 	    1.0000 	   33.0000 	   51.4229
    6.3096 	   33.9675 	    1.0000 	   33.0000 	   51.8259
    6.3554 	   34.0775 	    1.0000 	   33.0000 	   52.2659
    6.2791 	   34.1893 	    1.0000 	   33.0000 	   52.7130
    6.3096 	   34.3008 	    1.0000 	   33.0000 	   53.1590
    6.4469 	   34.4140 	    1.0000 	   33.0000 	   53.6120
    6.5995 	   34.5180 	    1.0000 	   33.0000 	   54.0280
    6.4622 	   34.6308 	    1.0000 	   33.0000 	   54.4791
    6.6300 	   34.7355 	    1.0000 	   33.0000 	   54.8981
    6.4622 	   34.8455 	    1.0000 	   33.0000 	   55.3381
    6.5690 	   34.9508 	    1.0000 	   33.0000 	   55.7591
    6.5843 	   35.0522 	    1.0000 	   33.0000 	   56.1652
    6.6148 	   35.1595 	    1.0000 	   33.0000 	   56.5942
    6.6606 	   35.2703 	    1.0000 	   33.0000 	   57.0372
    6.7216 	   35.3708 	    1.0000 	   33.0000 	   57.4392
    6.4012 	   35.4750 	    1.0000 	   33.0000 	   57.8563
    6.7674 	   35.5845 	    1.0000 	   33.0000 	   58.2943
    6.8284 	   35.6978 	    1.0000 	   33.0000 	   58.7473
    6.8589 	   35.8030 	    1.0000 	   33.0000 	   59.1683
    7.0268 	   35.9055 	    1.0000 	   33.0000 	   59.5784
    6.9200 	   36.0125 	    1.0000 	   34.0000 	    0.0064
    6.8894 	   36.1190 	    1.0000 	   34.0000 	    0.4324
    7.0573 	   36.2288 	    1.0000 	   34.0000 	    0.8714
    6.8437 	   36.3340 	    1.0000 	   34.0000 	    1.2925
    7.2557 	   36.4380 	    1.0000 	   34.0000 	    1.7085
    7.1489 	   36.5428 	    1.0000 	   34.0000 	    2.1275
    7.3777 	   36.6468 	    1.0000 	   34.0000 	    2.5435
    7.3014 	   36.7500 	    1.0000 	   34.0000 	    2.9565
    7.2557 	   36.8553 	    1.0000 	   34.0000 	    3.3776
    7.4998 	   36.9583 	    1.0000 	   34.0000 	    3.7896
    7.4693 	   37.0633 	    1.0000 	   34.0000 	    4.2096
    7.3014 	   37.1660 	    1.0000 	   34.0000 	    4.6206
    7.4388 	   37.2705 	    1.0000 	   34.0000 	    5.0387
    7.6524 	   37.3743 	    1.0000 	   34.0000 	    5.4537
    7.6982 	   37.4820 	    1.0000 	   34.0000 	    5.8847
    7.5456 	   37.5910 	    1.0000 	   34.0000 	    6.3207
    7.6371 	   37.6965 	    1.0000 	   34.0000 	    6.7428
    7.7287 	   37.8040 	    1.0000 	   34.0000 	    7.1728
    7.7745 	   37.9083 	    1.0000 	   34.0000 	    7.5898
    7.8355 	   38.0128 	    1.0000 	   34.0000 	    8.0078
    8.0034 	   38.1185 	    1.0000 	   34.0000 	    8.4309
    7.7897 	   38.2235 	    1.0000 	   34.0000 	    8.8499
    7.9423 	   38.3273 	    1.0000 	   34.0000 	    9.2649
    8.0797 	   38.4330 	    1.0000 	   34.0000 	    9.6879
    8.1712 	   38.5370 	    1.0000 	   34.0000 	   10.1040
    8.0797 	   38.6425 	    1.0000 	   34.0000 	   10.5250
    8.0491 	   38.7470 	    1.0000 	   34.0000 	   10.9440
    8.1254 	   38.8548 	    1.0000 	   34.0000 	   11.3750
    8.2017 	   38.9605 	    1.0000 	   34.0000 	   11.7981
    8.0797 	   39.0668 	    1.0000 	   34.0000 	   12.2231
    7.9576 	   39.1743 	    1.0000 	   34.0000 	   12.6531
    8.0644 	   39.2815 	    1.0000 	   34.0000 	   13.0821
    7.8202 	   39.3875 	    1.0000 	   34.0000 	   13.5062
    7.8050 	   39.4933 	    1.0000 	   34.0000 	   13.9292
    7.7287 	   39.6003 	    1.0000 	   34.0000 	   14.3572
    7.8965 	   39.7055 	    1.0000 	   34.0000 	   14.7782
    7.7440 	   39.8130 	    1.0000 	   34.0000 	   15.2082
    7.7592 	   39.9190 	    1.0000 	   34.0000 	   15.6323
    7.6982 	   40.0265 	    1.0000 	   34.0000 	   16.0623
    7.8050 	   40.1330 	    1.0000 	   34.0000 	   16.4883
    7.7134 	   40.2398 	    1.0000 	   34.0000 	   16.9153
    7.6524 	   40.3515 	    1.0000 	   34.0000 	   17.3614
    7.7745 	   40.4610 	    1.0000 	   34.0000 	   17.8004
    7.6371 	   40.5765 	    1.0000 	   34.0000 	   18.2624
    7.6219 	   40.6900 	    1.0000 	   34.0000 	   18.7164
    7.5608 	   40.8068 	    1.0000 	   34.0000 	   19.1835
    7.5914 	   40.9178 	    1.0000 	   34.0000 	   19.6275
    7.5761 	   41.0273 	    1.0000 	   34.0000 	   20.0655
    7.4998 	   41.1350 	    1.0000 	   34.0000 	   20.4966
    7.5914 	   41.2430 	    1.0000 	   34.0000 	   20.9286
    7.4388 	   41.3530 	    1.0000 	   34.0000 	   21.3686
    7.4693 	   41.4638 	    1.0000 	   34.0000 	   21.8116
    7.5761 	   41.5735 	    1.0000 	   34.0000 	   22.2507
    7.4998 	   41.6820 	    1.0000 	   34.0000 	   22.6847
    7.5761 	   41.7943 	    1.0000 	   34.0000 	   23.1337
    7.5303 	   41.9130 	    1.0000 	   34.0000 	   23.6087
    7.3320 	   42.0263 	    1.0000 	   34.0000 	   24.0618
    7.4388 	   42.1355 	    1.0000 	   34.0000 	   24.4988
    7.5303 	   42.2453 	    1.0000 	   34.0000 	   24.9378
    7.4845 	   42.3650 	    1.0000 	   34.0000 	   25.4168
    7.4083 	   42.4838 	    1.0000 	   34.0000 	   25.8919
    7.4235 	   42.5980 	    1.0000 	   34.0000 	   26.3479
    7.2862 	   42.7090 	    1.0000 	   34.0000 	   26.7919
    7.4540 	   42.8245 	    1.0000 	   34.0000 	   27.2539
    7.4540 	   42.9390 	    1.0000 	   34.0000 	   27.7120
    7.3472 	   43.0545 	    1.0000 	   34.0000 	   28.1740
    7.3167 	   43.1685 	    1.0000 	   34.0000 	   28.6300
    7.4388 	   43.2828 	    1.0000 	   34.0000 	   29.0870
    7.4998 	   43.4035 	    1.0000 	   34.0000 	   29.5701
    7.2404 	   43.5188 	    1.0000 	   34.0000 	   30.0311
    7.2862 	   43.6330 	    1.0000 	   34.0000 	   30.4871
    7.4540 	   43.7470 	    1.0000 	   34.0000 	   30.9441
    7.1794 	   43.8698 	    1.0000 	   34.0000 	   31.4352
    7.2862 	   43.9845 	    1.0000 	   34.0000 	   31.8942
    7.3625 	   44.0968 	    1.0000 	   34.0000 	   32.3432
    7.2709 	   44.2073 	    1.0000 	   34.0000 	   32.7853
    7.2404 	   44.3173 	    1.0000 	   34.0000 	   33.2253
    7.4083 	   44.4283 	    1.0000 	   34.0000 	   33.6693
    7.1794 	   44.5498 	    1.0000 	   34.0000 	   34.1553
    7.3625 	   44.6635 	    1.0000 	   34.0000 	   34.6104
    7.2251 	   44.7830 	    1.0000 	   34.0000 	   35.0884
    7.3320 	   44.8980 	    1.0000 	   34.0000 	   35.5484
    7.2709 	   45.0128 	    1.0000 	   34.0000 	   36.0074
    7.3777 	   45.1260 	    1.0000 	   34.0000 	   36.4605
    7.2404 	   45.2375 	    1.0000 	   34.0000 	   36.9065
    7.1489 	   45.3493 	    1.0000 	   34.0000 	   37.3535
    7.2404 	   45.4648 	    1.0000 	   34.0000 	   37.8155
    7.1794 	   45.5775 	    1.0000 	   34.0000 	   38.2666
    7.1946 	   45.6908 	    1.0000 	   34.0000 	   38.7196
    7.3014 	   45.8060 	    1.0000 	   34.0000 	   39.1806
    7.2099 	   45.9193 	    1.0000 	   34.0000 	   39.6336
    7.4388 	   46.0320 	    1.0000 	   34.0000 	   40.0847
    7.2709 	   46.1455 	    1.0000 	   34.0000 	   40.5387
    7.3014 	   46.2620 	    1.0000 	   34.0000 	   41.0047
    7.2862 	   46.3743 	    1.0000 	   34.0000 	   41.4538
    7.2709 	   46.4895 	    1.0000 	   34.0000 	   41.9148
    7.2404 	   46.6035 	    1.0000 	   34.0000 	   42.3708
    7.1641 	   46.7218 	    1.0000 	   34.0000 	   42.8438
    7.0420 	   46.8413 	    1.0000 	   34.0000 	   43.3219
    7.2404 	   46.9570 	    1.0000 	   34.0000 	   43.7839
    7.1336 	   47.0758 	    1.0000 	   34.0000 	   44.2589
    7.1946 	   47.1928 	    1.0000 	   34.0000 	   44.7269
    7.1183 	   47.3100 	    1.0000 	   34.0000 	   45.1950
    7.1183 	   47.4265 	    1.0000 	   34.0000 	   45.6620
    7.0420 	   47.5413 	    1.0000 	   34.0000 	   46.1210
    7.1336 	   47.6598 	    1.0000 	   34.0000 	   46.5950
    7.1641 	   47.7823 	    1.0000 	   34.0000 	   47.0851
    7.2862 	   47.8978 	    1.0000 	   34.0000 	   47.5461
    7.0268 	   48.0133 	    1.0000 	   34.0000 	   48.0091
    6.9963 	   48.1293 	    1.0000 	   34.0000 	   48.4732
    7.1489 	   48.2493 	    1.0000 	   34.0000 	   48.9532
    7.1183 	   48.3675 	    1.0000 	   34.0000 	   49.4262
    7.0115 	   48.4863 	    1.0000 	   34.0000 	   49.9012
    7.2862 	   48.6115 	    1.0000 	   34.0000 	   50.4023
    7.2557 	   48.7293 	    1.0000 	   34.0000 	   50.8733
    7.1183 	   48.8458 	    1.0000 	   34.0000 	   51.3393
    7.1183 	   48.9643 	    1.0000 	   34.0000 	   51.8133
    6.9505 	   49.0843 	    1.0000 	   34.0000 	   52.2934
    7.1336 	   49.2013 	    1.0000 	   34.0000 	   52.7614
    7.1031 	   49.3178 	    1.0000 	   34.0000 	   53.2274
    7.1641 	   49.4358 	    1.0000 	   34.0000 	   53.6995
    7.1489 	   49.5538 	    1.0000 	   34.0000 	   54.1715
    7.1794 	   49.6688 	    1.0000 	   34.0000 	   54.6315
    7.2404 	   49.7868 	    1.0000 	   34.0000 	   55.1035
    7.0573 	   49.9068 	    1.0000 	   34.0000 	   55.5836
    7.1336 	   50.0240 	    1.0000 	   34.0000 	   56.0526
    6.9505 	   50.1538 	    1.0000 	   34.0000 	   56.5716
    7.0420 	   50.2705 	    1.0000 	   34.0000 	   57.0386
    7.0115 	   50.3895 	    1.0000 	   34.0000 	   57.5147
    7.1183 	   50.5103 	    1.0000 	   34.0000 	   57.9977
    7.0726 	   50.6268 	    1.0000 	   34.0000 	   58.4637
    7.1641 	   50.7438 	    1.0000 	   34.0000 	   58.9317
    6.9505 	   50.8665 	    1.0000 	   34.0000 	   59.4228
    7.0878 	   50.9908 	    1.0000 	   34.0000 	   59.9198
    6.9657 	   51.1160 	    1.0000 	   35.0000 	    0.4208
    6.7521 	   51.2418 	    1.0000 	   35.0000 	    0.9239
    7.1183 	   51.3685 	    1.0000 	   35.0000 	    1.4299
    6.9657 	   51.4880 	    1.0000 	   35.0000 	    1.9079
    7.1031 	   51.6118 	    1.0000 	   35.0000 	    2.4029
    6.9963 	   51.7323 	    1.0000 	   35.0000 	    2.8850
    6.9352 	   51.8580 	    1.0000 	   35.0000 	    3.3880
    6.9810 	   51.9778 	    1.0000 	   35.0000 	    3.8670
    7.1336 	   52.0990 	    1.0000 	   35.0000 	    4.3521
    6.8742 	   52.2210 	    1.0000 	   35.0000 	    4.8401
    7.1489 	   52.3483 	    1.0000 	   35.0000 	    5.3491
    6.9352 	   52.4715 	    1.0000 	   35.0000 	    5.8421
    7.0726 	   52.5938 	    1.0000 	   35.0000 	    6.3312
    6.9047 	   52.7233 	    1.0000 	   35.0000 	    6.8492
    6.8742 	   52.8505 	    1.0000 	   35.0000 	    7.3582
    6.9200 	   52.9805 	    1.0000 	   35.0000 	    7.8783
    6.9963 	   53.1115 	    1.0000 	   35.0000 	    8.4023
    7.1031 	   53.2395 	    1.0000 	   35.0000 	    8.9143
    6.9810 	   53.3670 	    1.0000 	   35.0000 	    9.4243
    7.1641 	   53.4908 	    1.0000 	   35.0000 	    9.9194
    7.0115 	   53.6178 	    1.0000 	   35.0000 	   10.4274
    7.0420 	   53.7415 	    1.0000 	   35.0000 	   10.9224
    6.9200 	   53.8740 	    1.0000 	   35.0000 	   11.4525
    6.7216 	   54.0038 	    1.0000 	   35.0000 	   11.9715
    7.0115 	   54.1323 	    1.0000 	   35.0000 	   12.4855
    7.0573 	   54.2575 	    1.0000 	   35.0000 	   12.9866
    6.9963 	   54.3825 	    1.0000 	   35.0000 	   13.4866
    7.0726 	   54.5123 	    1.0000 	   35.0000 	   14.0056
    6.9200 	   54.6430 	    1.0000 	   35.0000 	   14.5286
    6.7369 	   54.7710 	    1.0000 	   35.0000 	   15.0407
    6.5232 	   54.9005 	    1.0000 	   35.0000 	   15.5587
    6.9657 	   55.0228 	    1.0000 	   35.0000 	   16.0477
    6.9657 	   55.1488 	    1.0000 	   35.0000 	   16.5518
    6.7521 	   55.2785 	    1.0000 	   35.0000 	   17.0708
    6.7979 	   55.4080 	    1.0000 	   35.0000 	   17.5888
    6.7063 	   55.5393 	    1.0000 	   35.0000 	   18.1138
    6.3706 	   55.6638 	    1.0000 	   35.0000 	   18.6109
    6.2943 	   55.7923 	    1.0000 	   35.0000 	   19.1249
    6.2333 	   55.9200 	    1.0000 	   35.0000 	   19.6359
    6.0655 	   56.0513 	    1.0000 	   35.0000 	   20.1610
    5.8366 	   56.1775 	    1.0000 	   35.0000 	   20.6660
    5.7908 	   56.3015 	    1.0000 	   35.0000 	   21.1620
    5.8518 	   56.4253 	    1.0000 	   35.0000 	   21.6570
    5.5467 	   56.5545 	    1.0000 	   35.0000 	   22.1741
    5.4093 	   56.6825 	    1.0000 	   35.0000 	   22.6861
    5.5161 	   56.8095 	    1.0000 	   35.0000 	   23.1941
    5.3788 	   56.9408 	    1.0000 	   35.0000 	   23.7192
    5.1041 	   57.0675 	    1.0000 	   35.0000 	   24.2262
    5.1194 	   57.1965 	    1.0000 	   35.0000 	   24.7422
    5.0736 	   57.3260 	    1.0000 	   35.0000 	   25.2603
    4.9516 	   57.4513 	    1.0000 	   35.0000 	   25.7613
    4.9058 	   57.5760 	    1.0000 	   35.0000 	   26.2603
    4.7074 	   57.7050 	    1.0000 	   35.0000 	   26.7763
    4.6159 	   57.8315 	    1.0000 	   35.0000 	   27.2824
    4.7074 	   57.9585 	    1.0000 	   35.0000 	   27.7904
    4.4785 	   58.0915 	    1.0000 	   35.0000 	   28.3224
    4.6006 	   58.2208 	    1.0000 	   35.0000 	   28.8395
    4.4785 	   58.3443 	    1.0000 	   35.0000 	   29.3335
    4.3259 	   58.4775 	    1.0000 	   35.0000 	   29.8665
    4.2496 	   58.6030 	    1.0000 	   35.0000 	   30.3685
    4.3565 	   58.7295 	    1.0000 	   35.0000 	   30.8746
    4.2802 	   58.8633 	    1.0000 	   35.0000 	   31.4096
    4.2344 	   58.9925 	    1.0000 	   35.0000 	   31.9266
    4.1581 	   59.1230 	    1.0000 	   35.0000 	   32.4487
    4.0360 	   59.2505 	    1.0000 	   35.0000 	   32.9587
    4.0360 	   59.3738 	    1.0000 	   35.0000 	   33.4517
    4.0970 	   59.4960 	    1.0000 	   35.0000 	   33.9408
    4.1123 	   59.6203 	    1.0000 	   35.0000 	   34.4378
    4.0055 	   59.7450 	    1.0000 	   35.0000 	   34.9368
    3.8987 	   59.8688 	    1.0000 	   35.0000 	   35.4318
    3.8529 	   59.9908 	    1.0000 	   35.0000 	   35.9199
    3.7613 	   60.1145 	    1.0000 	   35.0000 	   36.4139
    3.7461 	   60.2375 	    1.0000 	   35.0000 	   36.9059
    3.7156 	   60.3608 	    1.0000 	   35.0000 	   37.3989
    3.5935 	   60.4840 	    1.0000 	   35.0000 	   37.8920
    3.7613 	   60.6075 	    1.0000 	   35.0000 	   38.3860
    3.6851 	   60.7298 	    1.0000 	   35.0000 	   38.8750
    3.5477 	   60.8545 	    1.0000 	   35.0000 	   39.3741
    3.4257 	   60.9795 	    1.0000 	   35.0000 	   39.8741
    3.5477 	   61.1043 	    1.0000 	   35.0000 	   40.3731
    3.4714 	   61.2300 	    1.0000 	   35.0000 	   40.8761
    3.5019 	   61.3548 	    1.0000 	   35.0000 	   41.3752
    3.4257 	   61.4800 	    1.0000 	   35.0000 	   41.8762
    3.4714 	   61.6050 	    1.0000 	   35.0000 	   42.3762
    3.3036 	   61.7295 	    1.0000 	   35.0000 	   42.8743
    3.1968 	   61.8550 	    1.0000 	   35.0000 	   43.3763
    3.2273 	   61.9818 	    1.0000 	   35.0000 	   43.8833
    3.1662 	   62.1105 	    1.0000 	   35.0000 	   44.3983
    3.1052 	   62.2398 	    1.0000 	   35.0000 	   44.9154
    3.1968 	   62.3653 	    1.0000 	   35.0000 	   45.4174
    3.0594 	   62.4890 	    1.0000 	   35.0000 	   45.9124
    3.1510 	   62.6168 	    1.0000 	   35.0000 	   46.4235
    3.1815 	   62.7473 	    1.0000 	   35.0000 	   46.9455
    3.0137 	   62.8748 	    1.0000 	   35.0000 	   47.4555
    3.1357 	   63.0005 	    1.0000 	   35.0000 	   47.9586
    2.9831 	   63.1258 	    1.0000 	   35.0000 	   48.4596
    2.8916 	   63.2505 	    1.0000 	   35.0000 	   48.9586
    2.6932 	   63.3758 	    1.0000 	   35.0000 	   49.4596
    2.9068 	   63.5010 	    1.0000 	   35.0000 	   49.9607
    2.8763 	   63.6295 	    1.0000 	   35.0000 	   50.4747
    2.8153 	   63.7640 	    1.0000 	   35.0000 	   51.0127
    2.8916 	   63.8965 	    1.0000 	   35.0000 	   51.5428
    2.8763 	   64.0330 	    1.0000 	   35.0000 	   52.0888
    2.6780 	   64.1688 	    1.0000 	   35.0000 	   52.6318
    2.8611 	   64.2962 	    1.0000 	   35.0000 	   53.1418
    2.7237 	   64.4228 	    1.0000 	   35.0000 	   53.6469
    2.8153 	   64.5498 	    1.0000 	   35.0000 	   54.1549
    2.7085 	   64.6773 	    1.0000 	   35.0000 	   54.6649
    2.6627 	   64.8048 	    1.0000 	   35.0000 	   55.1750
    2.5864 	   64.9335 	    1.0000 	   35.0000 	   55.6900
    2.5559 	   65.0685 	    1.0000 	   35.0000 	   56.2300
    2.5711 	   65.1968 	    1.0000 	   35.0000 	   56.7431
    2.4948 	   65.3288 	    1.0000 	   35.0000 	   57.2711
    2.4186 	   65.4578 	    1.0000 	   35.0000 	   57.7871
    2.4033 	   65.5925 	    1.0000 	   35.0000 	   58.3261
    2.6474 	   65.7280 	    1.0000 	   35.0000 	   58.8682
    2.4338 	   65.8663 	    1.0000 	   35.0000 	   59.4212
    2.3728 	   66.0025 	    1.0000 	   35.0000 	   59.9662
    2.2049 	   66.1410 	    1.0000 	   36.0000 	    0.5203
    2.3423 	   66.2735 	    1.0000 	   36.0000 	    1.0503
    2.3117 	   66.4123 	    1.0000 	   36.0000 	    1.6053
    2.1134 	   66.5527 	    1.0000 	   36.0000 	    2.1674
    2.2660 	   66.6895 	    1.0000 	   36.0000 	    2.7144
    2.2354 	   66.8235 	    1.0000 	   36.0000 	    3.2504
    2.3880 	   66.9622 	    1.0000 	   36.0000 	    3.8055
    2.1744 	   67.1023 	    1.0000 	   36.0000 	    4.3655
    2.3117 	   67.2348 	    1.0000 	   36.0000 	    4.8955
    2.1744 	   67.3758 	    1.0000 	   36.0000 	    5.4596
    2.0829 	   67.5128 	    1.0000 	   36.0000 	    6.0076
    2.2660 	   67.6453 	    1.0000 	   36.0000 	    6.5376
    2.0523 	   67.7840 	    1.0000 	   36.0000 	    7.0926
    2.2812 	   67.9175 	    1.0000 	   36.0000 	    7.6267
    1.9760 	   68.0518 	    1.0000 	   36.0000 	    8.1637
    2.1134 	   68.1880 	    1.0000 	   36.0000 	    8.7087
    1.9608 	   68.3280 	    1.0000 	   36.0000 	    9.2688
    2.1744 	   68.4622 	    1.0000 	   36.0000 	    9.8058
    2.0066 	   68.6015 	    1.0000 	   36.0000 	   10.3628
    2.0066 	   68.7410 	    1.0000 	   36.0000 	   10.9209
    1.9303 	   68.8838 	    1.0000 	   36.0000 	   11.4909
    1.8082 	   69.0195 	    1.0000 	   36.0000 	   12.0339
    1.9150 	   69.1535 	    1.0000 	   36.0000 	   12.5700
    1.8082 	   69.2887 	    1.0000 	   36.0000 	   13.1110
    1.9608 	   69.4288 	    1.0000 	   36.0000 	   13.6710
    1.5946 	   69.5713 	    1.0000 	   36.0000 	   14.2411
    1.7929 	   69.7075 	    1.0000 	   36.0000 	   14.7861
    1.7624 	   69.8445 	    1.0000 	   36.0000 	   15.3341
    1.8387 	   69.9788 	    1.0000 	   36.0000 	   15.8712
    1.5488 	   70.1195 	    1.0000 	   36.0000 	   16.4342
    1.7929 	   70.2580 	    1.0000 	   36.0000 	   16.9882
    1.8540 	   70.3925 	    1.0000 	   36.0000 	   17.5262
    1.8082 	   70.5295 	    1.0000 	   36.0000 	   18.0743
    1.6403 	   70.6705 	    1.0000 	   36.0000 	   18.6383
    1.8235 	   70.8138 	    1.0000 	   36.0000 	   19.2113
    1.8387 	   70.9510 	    1.0000 	   36.0000 	   19.7604
    1.7014 	   71.0885 	    1.0000 	   36.0000 	   20.3104
    1.5183 	   71.2300 	    1.0000 	   36.0000 	   20.8764
    1.6403 	   71.3733 	    1.0000 	   36.0000 	   21.4495
    1.5640 	   71.5090 	    1.0000 	   36.0000 	   21.9925
    1.5183 	   71.6470 	    1.0000 	   36.0000 	   22.5445
    1.6861 	   71.7858 	    1.0000 	   36.0000 	   23.0996
    1.5793 	   71.9290 	    1.0000 	   36.0000 	   23.6726
    1.3657 	   72.0705 	    1.0000 	   36.0000 	   24.2376
    1.4115 	   72.2093 	    1.0000 	   36.0000 	   24.7937
    1.5488 	   72.3450 	    1.0000 	   36.0000 	   25.3367
    1.3809 	   72.4835 	    1.0000 	   36.0000 	   25.8907
    1.3657 	   72.6220 	    1.0000 	   36.0000 	   26.4448
    1.3199 	   72.7600 	    1.0000 	   36.0000 	   26.9968
    1.3199 	   72.8963 	    1.0000 	   36.0000 	   27.5418
    1.4725 	   73.0380 	    1.0000 	   36.0000 	   28.1089
    1.3809 	   73.1795 	    1.0000 	   36.0000 	   28.6739
    1.4115 	   73.3183 	    1.0000 	   36.0000 	   29.2289
    1.3199 	   73.4583 	    1.0000 	   36.0000 	   29.7889
    1.2436 	   73.5948 	    1.0000 	   36.0000 	   30.3350
    1.2131 	   73.7323 	    1.0000 	   36.0000 	   30.8850
    1.1521 	   73.8778 	    1.0000 	   36.0000 	   31.4670
    1.2741 	   74.0215 	    1.0000 	   36.0000 	   32.0421
    0.8774 	   74.1620 	    1.0000 	   36.0000 	   32.6031
    1.2589 	   74.3018 	    1.0000 	   36.0000 	   33.1631
    1.2131 	   74.4458 	    1.0000 	   36.0000 	   33.7392
    1.1368 	   74.5898 	    1.0000 	   36.0000 	   34.3152
    1.1673 	   74.7310 	    1.0000 	   36.0000 	   34.8802
    1.1521 	   74.8780 	    1.0000 	   36.0000 	   35.4683
    1.3046 	   75.0210 	    1.0000 	   36.0000 	   36.0403
    0.8316 	   75.1573 	    1.0000 	   36.0000 	   36.5853
    1.1673 	   75.3013 	    1.0000 	   36.0000 	   37.1614
    1.1215 	   75.4470 	    1.0000 	   36.0000 	   37.7444
    1.0300 	   75.5903 	    1.0000 	   36.0000 	   38.3174
    1.0300 	   75.7365 	    1.0000 	   36.0000 	   38.9025
    0.9842 	   75.8800 	    1.0000 	   36.0000 	   39.4765
    1.0147 	   76.0180 	    1.0000 	   36.0000 	   40.0285
    0.9995 	   76.1585 	    1.0000 	   36.0000 	   40.5906
    1.0605 	   76.3035 	    1.0000 	   36.0000 	   41.1706
    0.8621 	   76.4445 	    1.0000 	   36.0000 	   41.7346
    0.6332 	   76.5905 	    1.0000 	   36.0000 	   42.3187
    0.9384 	   76.7330 	    1.0000 	   36.0000 	   42.8887
    0.8469 	   76.8768 	    1.0000 	   36.0000 	   43.4637
    1.0147 	   77.0253 	    1.0000 	   36.0000 	   44.0578
    0.4501 	   77.1688 	    1.0000 	   36.0000 	   44.6318
    0.7553 	   77.3165 	    1.0000 	   36.0000 	   45.2228
    0.9537 	   77.4603 	    1.0000 	   36.0000 	   45.7979
    0.7401 	   77.6048 	    1.0000 	   36.0000 	   46.3749
    0.8164 	   77.7478 	    1.0000 	   36.0000 	   46.9469
    0.6485 	   77.8890 	    1.0000 	   36.0000 	   47.5120
    0.9842 	   78.0293 	    1.0000 	   36.0000 	   48.0730
    0.6027 	   78.1733 	    1.0000 	   36.0000 	   48.6490
    0.8164 	   78.3143 	    1.0000 	   36.0000 	   49.2131
    0.5875 	   78.4605 	    1.0000 	   36.0000 	   49.7981
    0.6790 	   78.6030 	    1.0000 	   36.0000 	   50.3681
    0.4959 	   78.7448 	    1.0000 	   36.0000 	   50.9352
    0.5264 	   78.8928 	    1.0000 	   36.0000 	   51.5272
    0.5417 	   79.0343 	    1.0000 	   36.0000 	   52.0932
    0.4654 	   79.1740 	    1.0000 	   36.0000 	   52.6523
    0.5722 	   79.3150 	    1.0000 	   36.0000 	   53.2163
    0.4959 	   79.4603 	    1.0000 	   36.0000 	   53.7973
    0.4196 	   79.6015 	    1.0000 	   36.0000 	   54.3624
    0.3586 	   79.7468 	    1.0000 	   36.0000 	   54.9434
    0.5112 	   79.8980 	    1.0000 	   36.0000 	   55.5484
    0.4196 	   80.0468 	    1.0000 	   36.0000 	   56.1435
    0.4501 	   80.1908 	    1.0000 	   36.0000 	   56.7195
    0.2518 	   80.3345 	    1.0000 	   36.0000 	   57.2945
    0.3281 	   80.4835 	    1.0000 	   36.0000 	   57.8906
    0.2365 	   80.6303 	    1.0000 	   36.0000 	   58.4776
    0.3433 	   80.7795 	    1.0000 	   36.0000 	   59.0746
    0.2670 	   80.9293 	    1.0000 	   36.0000 	   59.6737
    0.2060 	   81.0790 	    1.0000 	   37.0000 	    0.2727
    0.2823 	   81.2235 	    1.0000 	   37.0000 	    0.8507
    0.2823 	   81.3708 	    1.0000 	   37.0000 	    1.4398
    0.1602 	   81.5198 	    1.0000 	   37.0000 	    2.0358
    0.2060 	   81.6665 	    1.0000 	   37.0000 	    2.6228
    0.0992 	   81.8093 	    1.0000 	   37.0000 	    3.1939
    0.1450 	   81.9550 	    1.0000 	   37.0000 	    3.7759
    0.0687 	   82.0978 	    1.0000 	   37.0000 	    4.3469
    0.1907 	   82.2403 	    1.0000 	   37.0000 	    4.9170
    0.0839 	   82.3885 	    1.0000 	   37.0000 	    5.5100
    0.0992 	   82.5378 	    1.0000 	   37.0000 	    6.1070
    0.1297 	   82.6858 	    1.0000 	   37.0000 	    6.6991
    0.1907 	   82.8290 	    1.0000 	   37.0000 	    7.2721
    0.0381 	   82.9768 	    1.0000 	   37.0000 	    7.8631
    0.0534 	   83.1260 	    1.0000 	   37.0000 	    8.4602
    0.1755 	   83.2758 	    1.0000 	   37.0000 	    9.0592
    0.0992 	   83.4265 	    1.0000 	   37.0000 	    9.6622
   -0.0992 	   83.5783 	    1.0000 	   37.0000 	   10.2693
    0.0687 	   83.7290 	    1.0000 	   37.0000 	   10.8723
    0.0839 	   83.8735 	    1.0000 	   37.0000 	   11.4503
    0.0839 	   84.0150 	    1.0000 	   37.0000 	   12.0164
    0.0381 	   84.1635 	    1.0000 	   37.0000 	   12.6104
    0.1450 	   84.3165 	    1.0000 	   37.0000 	   13.2224
    0.2976 	   84.4663 	    1.0000 	   37.0000 	   13.8215
    0.0992 	   84.6168 	    1.0000 	   37.0000 	   14.4235
    0.0992 	   84.7618 	    1.0000 	   37.0000 	   15.0035
    0.2213 	   84.9143 	    1.0000 	   37.0000 	   15.6136
    0.0534 	   85.0665 	    1.0000 	   37.0000 	   16.2226
    0.1450 	   85.2168 	    1.0000 	   37.0000 	   16.8236
    0.1144 	   85.3685 	    1.0000 	   37.0000 	   17.4307
   -0.2670 	   85.5158 	    1.0000 	   37.0000 	   18.0197
    0.0992 	   85.6675 	    1.0000 	   37.0000 	   18.6267
    0.1755 	   85.8165 	    1.0000 	   37.0000 	   19.2228
    0.2060 	   85.9648 	    1.0000 	   37.0000 	   19.8158
   -0.0076 	   86.1125 	    1.0000 	   37.0000 	   20.4068
   -0.0229 	   86.2580 	    1.0000 	   37.0000 	   20.9879
    0.1450 	   86.4078 	    1.0000 	   37.0000 	   21.5869
    0.1602 	   86.5593 	    1.0000 	   37.0000 	   22.1929
    0.2670 	   86.7065 	    1.0000 	   37.0000 	   22.7820
    0.2976 	   86.8503 	    1.0000 	   37.0000 	   23.3570
    0.2823 	   87.0053 	    1.0000 	   37.0000 	   23.9770
    0.0992 	   87.1610 	    1.0000 	   37.0000 	   24.6001
    0.1450 	   87.3123 	    1.0000 	   37.0000 	   25.2051
    0.2060 	   87.4615 	    1.0000 	   37.0000 	   25.8022
    0.2518 	   87.6135 	    1.0000 	   37.0000 	   26.4102
    0.1450 	   87.7595 	    1.0000 	   37.0000 	   26.9942
   -0.1144 	   87.9110 	    1.0000 	   37.0000 	   27.6003
    0.0076 	   88.0593 	    1.0000 	   37.0000 	   28.1933
    0.0534 	   88.2080 	    1.0000 	   37.0000 	   28.7883
    0.0839 	   88.3595 	    1.0000 	   37.0000 	   29.3944
    0.0992 	   88.5060 	    1.0000 	   37.0000 	   29.9804
    0.1297 	   88.6538 	    1.0000 	   37.0000 	   30.5714
    0.2518 	   88.8050 	    1.0000 	   37.0000 	   31.1765
    0.1144 	   88.9580 	    1.0000 	   37.0000 	   31.7885
    0.0839 	   89.1120 	    1.0000 	   37.0000 	   32.4045
   -0.0992 	   89.2600 	    1.0000 	   37.0000 	   32.9966
    0.0381 	   89.4075 	    1.0000 	   37.0000 	   33.5866
    0.0534 	   89.5608 	    1.0000 	   37.0000 	   34.1996
    0.0534 	   89.7148 	    1.0000 	   37.0000 	   34.8157
    0.1297 	   89.8658 	    1.0000 	   37.0000 	   35.4197
    0.1755 	   90.0225 	    1.0000 	   37.0000 	   36.0467
    0.1144 	   90.1770 	    1.0000 	   37.0000 	   36.6648
   -0.0076 	   90.3285 	    1.0000 	   37.0000 	   37.2708
    0.1755 	   90.4828 	    1.0000 	   37.0000 	   37.8878
    0.0839 	   90.6383 	    1.0000 	   37.0000 	   38.5089
   -0.0229 	   90.7900 	    1.0000 	   37.0000 	   39.1159
    0.0229 	   90.9438 	    1.0000 	   37.0000 	   39.7309
    0.2060 	   91.0945 	    1.0000 	   37.0000 	   40.3340
    0.1450 	   91.2478 	    1.0000 	   37.0000 	   40.9470
    0.0839 	   91.3985 	    1.0000 	   37.0000 	   41.5500
    0.0992 	   91.5530 	    1.0000 	   37.0000 	   42.1681
    0.0687 	   91.7050 	    1.0000 	   37.0000 	   42.7761
    0.1297 	   91.8530 	    1.0000 	   37.0000 	   43.3682
    0.1907 	   92.0100 	    1.0000 	   37.0000 	   43.9962
   -0.0687 	   92.1643 	    1.0000 	   37.0000 	   44.6132
    0.2213 	   92.3150 	    1.0000 	   37.0000 	   45.2163
    0.0687 	   92.4668 	    1.0000 	   37.0000 	   45.8233
   -0.0229 	   92.6240 	    1.0000 	   37.0000 	   46.4523
    0.2213 	   92.7740 	    1.0000 	   37.0000 	   47.0524
   -0.1297 	   92.9300 	    1.0000 	   37.0000 	   47.6764
    0.0381 	   93.0855 	    1.0000 	   37.0000 	   48.2984
    0.0534 	   93.2360 	    1.0000 	   37.0000 	   48.9005
    0.0992 	   93.3858 	    1.0000 	   37.0000 	   49.4995
    0.0992 	   93.5378 	    1.0000 	   37.0000 	   50.1075
    0.1602 	   93.6888 	    1.0000 	   37.0000 	   50.7116
   -0.2060 	   93.8398 	    1.0000 	   37.0000 	   51.3156
    0.2365 	   93.9925 	    1.0000 	   37.0000 	   51.9266
    0.1144 	   94.1485 	    1.0000 	   37.0000 	   52.5507
    0.0687 	   94.3010 	    1.0000 	   37.0000 	   53.1607
    0.1602 	   94.4550 	    1.0000 	   37.0000 	   53.7767
   -0.0229 	   94.6063 	    1.0000 	   37.0000 	   54.3818
    0.1602 	   94.7553 	    1.0000 	   37.0000 	   54.9778
    0.0534 	   94.8920 	    1.0000 	   37.0000 	   55.5248