File: instron/blue_3cmW15cmL_drag40_sep15.txt
Thayer School of Engineering        Instron 4442 Mechanical Testing System
6/27/2018 10:52:43 PM

  Force (N)	Extension (mm)	Not Used	Not Used	Not Used	     Hour	    Minute	    Second
   -0.0534 	    0.2563 	   22.0000 	   53.0000 	   54.0790
    0.0534 	    0.3833 	   22.0000 	   53.0000 	   54.5870
    0.1907 	    0.5273 	   22.0000 	   53.0000 	   55.1630
    0.0687 	    0.6438 	   22.0000 	   53.0000 	   55.6290
    0.1297 	    0.7698 	   22.0000 	   53.0000 	   56.1331
    0.0687 	    0.8625 	   22.0000 	   53.0000 	   56.5041
    0.0534 	    0.9440 	   22.0000 	   53.0000 	   56.8301
   -0.0229 	    1.0353 	   22.0000 	   53.0000 	   57.1951
    0.0687 	    1.1178 	   22.0000 	   53.0000 	   57.5251
    0.0534 	    1.2080 	   22.0000 	   53.0000 	   57.8862
    0.1907 	    1.2883 	   22.0000 	   53.0000 	   58.2072
    0.1450 	    1.3688 	   22.0000 	   53.0000 	   58.5292
    0.2518 	    1.4480 	   22.0000 	   53.0000 	   58.8462
    0.2518 	    1.5285 	   22.0000 	   53.0000 	   59.1682
    0.0229 	    1.6098 	   22.0000 	   53.0000 	   59.4933
    0.0229 	    1.6898 	   22.0000 	   53.0000 	   59.8133
    0.0229 	    1.7720 	   22.0000 	   54.0000 	    0.1423
    0.2213 	    1.8528 	   22.0000 	   54.0000 	    0.4653
    0.2823 	    1.9353 	   22.0000 	   54.0000 	    0.7953
    0.1297 	    2.0143 	   22.0000 	   54.0000 	    1.1114
    0.1907 	    2.0933 	   22.0000 	   54.0000 	    1.4274
    0.1755 	    2.1715 	   22.0000 	   54.0000 	    1.7404
    0.0687 	    2.2510 	   22.0000 	   54.0000 	    2.0574
    0.2518 	    2.3308 	   22.0000 	   54.0000 	    2.3764
    0.2518 	    2.4105 	   22.0000 	   54.0000 	    2.6954
    0.2213 	    2.4910 	   22.0000 	   54.0000 	    3.0175
    0.2060 	    2.5705 	   22.0000 	   54.0000 	    3.3355
    0.2823 	    2.6518 	   22.0000 	   54.0000 	    3.6605
    0.2670 	    2.7330 	   22.0000 	   54.0000 	    3.9855
    0.2670 	    2.8135 	   22.0000 	   54.0000 	    4.3075
    0.2060 	    2.8940 	   22.0000 	   54.0000 	    4.6296
    0.3281 	    2.9750 	   22.0000 	   54.0000 	    4.9536
    0.4044 	    3.0583 	   22.0000 	   54.0000 	    5.2866
    0.3738 	    3.1403 	   22.0000 	   54.0000 	    5.6146
    0.5264 	    3.2228 	   22.0000 	   54.0000 	    5.9446
    0.3891 	    3.3043 	   22.0000 	   54.0000 	    6.2706
    0.4959 	    3.3875 	   22.0000 	   54.0000 	    6.6037
    0.4044 	    3.4685 	   22.0000 	   54.0000 	    6.9277
    0.6790 	    3.5530 	   22.0000 	   54.0000 	    7.2657
    0.3738 	    3.6345 	   22.0000 	   54.0000 	    7.5917
    0.3586 	    3.7168 	   22.0000 	   54.0000 	    7.9207
    0.4807 	    3.7993 	   22.0000 	   54.0000 	    8.2508
    0.4959 	    3.8825 	   22.0000 	   54.0000 	    8.5838
    0.6027 	    3.9633 	   22.0000 	   54.0000 	    8.9068
    0.5417 	    4.0470 	   22.0000 	   54.0000 	    9.2418
    0.5722 	    4.1305 	   22.0000 	   54.0000 	    9.5758
    0.6027 	    4.2133 	   22.0000 	   54.0000 	    9.9069
    0.6332 	    4.2980 	   22.0000 	   54.0000 	   10.2459
    0.6943 	    4.3810 	   22.0000 	   54.0000 	   10.5779
    0.8164 	    4.4633 	   22.0000 	   54.0000 	   10.9069
    0.9232 	    4.5468 	   22.0000 	   54.0000 	   11.2409
    0.8621 	    4.6305 	   22.0000 	   54.0000 	   11.5760
    0.9537 	    4.7135 	   22.0000 	   54.0000 	   11.9080
    0.9079 	    4.7973 	   22.0000 	   54.0000 	   12.2430
    0.9384 	    4.8815 	   22.0000 	   54.0000 	   12.5800
    0.9842 	    4.9660 	   22.0000 	   54.0000 	   12.9180
    0.8927 	    5.0495 	   22.0000 	   54.0000 	   13.2520
    0.9232 	    5.1335 	   22.0000 	   54.0000 	   13.5881
    1.0147 	    5.2180 	   22.0000 	   54.0000 	   13.9261
    1.0605 	    5.3020 	   22.0000 	   54.0000 	   14.2621
    0.8621 	    5.3853 	   22.0000 	   54.0000 	   14.5951
    0.9995 	    5.4688 	   22.0000 	   54.0000 	   14.9291
    1.0452 	    5.5545 	   22.0000 	   54.0000 	   15.2722
    1.1368 	    5.6383 	   22.0000 	   54.0000 	   15.6072
    1.1521 	    5.7220 	   22.0000 	   54.0000 	   15.9422
    1.3504 	    5.8063 	   22.0000 	   54.0000 	   16.2792
    1.3046 	    5.8988 	   22.0000 	   54.0000 	   16.6492
    1.1063 	    5.9823 	   22.0000 	   54.0000 	   16.9833
    1.1368 	    6.0675 	   22.0000 	   54.0000 	   17.3243
    1.2894 	    6.1515 	   22.0000 	   54.0000 	   17.6603
    1.2436 	    6.2335 	   22.0000 	   54.0000 	   17.9883
    1.2894 	    6.3200 	   22.0000 	   54.0000 	   18.3343
    1.3046 	    6.4043 	   22.0000 	   54.0000 	   18.6714
    1.3046 	    6.4903 	   22.0000 	   54.0000 	   19.0154
    1.3962 	    6.5753 	   22.0000 	   54.0000 	   19.3544
    1.4267 	    6.6613 	   22.0000 	   54.0000 	   19.6984
    1.3504 	    6.7453 	   22.0000 	   54.0000 	   20.0344
    1.3046 	    6.8300 	   22.0000 	   54.0000 	   20.3735
    1.4878 	    6.9155 	   22.0000 	   54.0000 	   20.7155
    1.3352 	    7.0033 	   22.0000 	   54.0000 	   21.0665
    1.5640 	    7.0898 	   22.0000 	   54.0000 	   21.4125
    1.4267 	    7.1758 	   22.0000 	   54.0000 	   21.7565
    1.5030 	    7.2623 	   22.0000 	   54.0000 	   22.1026
    1.4420 	    7.3478 	   22.0000 	   54.0000 	   22.4446
    1.3962 	    7.4338 	   22.0000 	   54.0000 	   22.7886
    1.5640 	    7.5218 	   22.0000 	   54.0000 	   23.1406
    1.7014 	    7.6078 	   22.0000 	   54.0000 	   23.4846
    1.5793 	    7.7030 	   22.0000 	   54.0000 	   23.8657
    1.6251 	    7.7895 	   22.0000 	   54.0000 	   24.2117
    1.6861 	    7.8778 	   22.0000 	   54.0000 	   24.5647
    1.5640 	    7.9665 	   22.0000 	   54.0000 	   24.9197
    1.6861 	    8.0615 	   22.0000 	   54.0000 	   25.2997
    1.7166 	    8.1490 	   22.0000 	   54.0000 	   25.6498
    1.8387 	    8.2388 	   22.0000 	   54.0000 	   26.0088
    1.7166 	    8.3265 	   22.0000 	   54.0000 	   26.3598
    1.6098 	    8.4140 	   22.0000 	   54.0000 	   26.7098
    1.6556 	    8.5040 	   22.0000 	   54.0000 	   27.0698
    1.9455 	    8.5915 	   22.0000 	   54.0000 	   27.4199
    1.7166 	    8.6805 	   22.0000 	   54.0000 	   27.7759
    1.8997 	    8.7678 	   22.0000 	   54.0000 	   28.1249
    1.8845 	    8.8575 	   22.0000 	   54.0000 	   28.4839
    1.7929 	    8.9450 	   22.0000 	   54.0000 	   28.8339
    1.8082 	    9.0347 	   22.0000 	   54.0000 	   29.1930
    1.8235 	    9.1218 	   22.0000 	   54.0000 	   29.5410
    1.8082 	    9.2103 	   22.0000 	   54.0000 	   29.8950
    1.9913 	    9.3003 	   22.0000 	   54.0000 	   30.2550
    1.8387 	    9.3885 	   22.0000 	   54.0000 	   30.6080
    1.6556 	    9.4765 	   22.0000 	   54.0000 	   30.9601
    2.0066 	    9.5680 	   22.0000 	   54.0000 	   31.3261
    1.8997 	    9.6585 	   22.0000 	   54.0000 	   31.6881
    1.8540 	    9.7475 	   22.0000 	   54.0000 	   32.0441
    1.9913 	    9.8365 	   22.0000 	   54.0000 	   32.4001
    1.9760 	    9.9248 	   22.0000 	   54.0000 	   32.7532
    1.9303 	   10.0135 	   22.0000 	   54.0000 	   33.1082
    2.0829 	   10.1035 	   22.0000 	   54.0000 	   33.4682
    1.9760 	   10.1948 	   22.0000 	   54.0000 	   33.8332
    2.0829 	   10.2858 	   22.0000 	   54.0000 	   34.1972
    2.1897 	   10.3748 	   22.0000 	   54.0000 	   34.5533
    2.0218 	   10.4655 	   22.0000 	   54.0000 	   34.9163
    2.1439 	   10.5540 	   22.0000 	   54.0000 	   35.2703
    2.2202 	   10.6523 	   22.0000 	   54.0000 	   35.6633
    2.2049 	   10.7335 	   22.0000 	   54.0000 	   35.9883
    2.1897 	   10.8213 	   22.0000 	   54.0000 	   36.3394
    2.0829 	   10.9118 	   22.0000 	   54.0000 	   36.7014
    2.1744 	   10.9970 	   22.0000 	   54.0000 	   37.0414
    2.0523 	   11.0880 	   22.0000 	   54.0000 	   37.4054
    2.0523 	   11.1793 	   22.0000 	   54.0000 	   37.7705
    2.1744 	   11.2750 	   22.0000 	   54.0000 	   38.1535
    2.1897 	   11.3653 	   22.0000 	   54.0000 	   38.5145
    2.3728 	   11.4568 	   22.0000 	   54.0000 	   38.8805
    2.3270 	   11.5493 	   22.0000 	   54.0000 	   39.2505
    2.4186 	   11.6410 	   22.0000 	   54.0000 	   39.6176
    2.3423 	   11.7315 	   22.0000 	   54.0000 	   39.9796
    2.5254 	   11.8165 	   22.0000 	   54.0000 	   40.3196
    2.3880 	   11.9090 	   22.0000 	   54.0000 	   40.6896
    2.4491 	   12.0030 	   22.0000 	   54.0000 	   41.0656
    2.3728 	   12.0855 	   22.0000 	   54.0000 	   41.3957
    2.3880 	   12.1708 	   22.0000 	   54.0000 	   41.7367
    2.4186 	   12.2513 	   22.0000 	   54.0000 	   42.0587
    2.2354 	   12.3330 	   22.0000 	   54.0000 	   42.3857
    2.5254 	   12.4250 	   22.0000 	   54.0000 	   42.7537
    2.1897 	   12.5123 	   22.0000 	   54.0000 	   43.1028
    2.4948 	   12.5945 	   22.0000 	   54.0000 	   43.4318
    2.4948 	   12.6848 	   22.0000 	   54.0000 	   43.7928
    2.5254 	   12.7790 	   22.0000 	   54.0000 	   44.1698
    2.7085 	   12.8718 	   22.0000 	   54.0000 	   44.5408
    2.3117 	   12.9640 	   22.0000 	   54.0000 	   44.9099
    2.6627 	   13.0575 	   22.0000 	   54.0000 	   45.2839
    2.5406 	   13.1500 	   22.0000 	   54.0000 	   45.6539
    2.5406 	   13.2345 	   22.0000 	   54.0000 	   45.9919
    2.6322 	   13.3195 	   22.0000 	   54.0000 	   46.3319
    2.5406 	   13.4133 	   22.0000 	   54.0000 	   46.7070
    2.8000 	   13.5065 	   22.0000 	   54.0000 	   47.0800
    2.8153 	   13.6010 	   22.0000 	   54.0000 	   47.4580
    2.7695 	   13.6945 	   22.0000 	   54.0000 	   47.8320
    2.8763 	   13.7820 	   22.0000 	   54.0000 	   48.1820
    2.8916 	   13.8650 	   22.0000 	   54.0000 	   48.5141
    2.7543 	   13.9500 	   22.0000 	   54.0000 	   48.8541
    2.7390 	   14.0465 	   22.0000 	   54.0000 	   49.2401
    2.7085 	   14.1400 	   22.0000 	   54.0000 	   49.6141
    2.8763 	   14.2338 	   22.0000 	   54.0000 	   49.9892
    2.7695 	   14.3290 	   22.0000 	   54.0000 	   50.3702
    2.8153 	   14.4223 	   22.0000 	   54.0000 	   50.7432
    2.7543 	   14.5048 	   22.0000 	   54.0000 	   51.0732
    2.9374 	   14.5913 	   22.0000 	   54.0000 	   51.4192
    2.8305 	   14.6845 	   22.0000 	   54.0000 	   51.7923
    2.6474 	   14.7798 	   22.0000 	   54.0000 	   52.1733
    3.0900 	   14.8740 	   22.0000 	   54.0000 	   52.5503
    3.0747 	   14.9698 	   22.0000 	   54.0000 	   52.9333
    3.0137 	   15.0678 	   22.0000 	   54.0000 	   53.3253
    3.0137 	   15.1630 	   22.0000 	   54.0000 	   53.7064
    3.1205 	   15.2485 	   22.0000 	   54.0000 	   54.0484
    3.0442 	   15.3380 	   22.0000 	   54.0000 	   54.4054
    3.1662 	   15.4260 	   22.0000 	   54.0000 	   54.7574
    2.9984 	   15.5165 	   22.0000 	   54.0000 	   55.1194
    3.0594 	   15.6018 	   22.0000 	   54.0000 	   55.4605
    3.1815 	   15.6928 	   22.0000 	   54.0000 	   55.8245
    3.2273 	   15.7828 	   22.0000 	   54.0000 	   56.1845
    3.1510 	   15.8728 	   22.0000 	   54.0000 	   56.5445
    3.1510 	   15.9685 	   22.0000 	   54.0000 	   56.9275
    3.1815 	   16.0590 	   22.0000 	   54.0000 	   57.2896
    3.1205 	   16.1515 	   22.0000 	   54.0000 	   57.6596
    3.1205 	   16.2483 	   22.0000 	   54.0000 	   58.0466
    3.2578 	   16.3437 	   22.0000 	   54.0000 	   58.4286
    3.2273 	   16.4388 	   22.0000 	   54.0000 	   58.8087
    3.3494 	   16.5360 	   22.0000 	   54.0000 	   59.1977
    3.2120 	   16.6315 	   22.0000 	   54.0000 	   59.5797
    3.4409 	   16.7290 	   22.0000 	   54.0000 	   59.9697
    3.4104 	   16.8183 	   22.0000 	   55.0000 	    0.3267
    3.3646 	   16.9158 	   22.0000 	   55.0000 	    0.7168
    3.3646 	   17.0110 	   22.0000 	   55.0000 	    1.0978
    3.3951 	   17.1080 	   22.0000 	   55.0000 	    1.4858
    3.3799 	   17.2068 	   22.0000 	   55.0000 	    1.8808
    3.3799 	   17.3030 	   22.0000 	   55.0000 	    2.2659
    3.5477 	   17.3995 	   22.0000 	   55.0000 	    2.6519
    3.5477 	   17.4978 	   22.0000 	   55.0000 	    3.0449
    3.4867 	   17.5950 	   22.0000 	   55.0000 	    3.4339
    3.5477 	   17.6920 	   22.0000 	   55.0000 	    3.8219
    3.4562 	   17.7900 	   22.0000 	   55.0000 	    4.2140
    3.4714 	   17.8885 	   22.0000 	   55.0000 	    4.6080
    3.7156 	   17.9800 	   22.0000 	   55.0000 	    4.9740
    3.4714 	   18.0728 	   22.0000 	   55.0000 	    5.3450
    3.4867 	   18.1605 	   22.0000 	   55.0000 	    5.6960
    3.5935 	   18.2538 	   22.0000 	   55.0000 	    6.0691
    3.6698 	   18.3523 	   22.0000 	   55.0000 	    6.4631
    3.7003 	   18.4500 	   22.0000 	   55.0000 	    6.8541
    3.7919 	   18.5478 	   22.0000 	   55.0000 	    7.2451
    3.7003 	   18.6465 	   22.0000 	   55.0000 	    7.6402
    3.7156 	   18.7450 	   22.0000 	   55.0000 	    8.0342
    3.5935 	   18.8435 	   22.0000 	   55.0000 	    8.4282
    3.7308 	   18.9403 	   22.0000 	   55.0000 	    8.8152
    3.9750 	   19.0408 	   22.0000 	   55.0000 	    9.2172
    3.7613 	   19.1383 	   22.0000 	   55.0000 	    9.6073
    3.8529 	   19.2368 	   22.0000 	   55.0000 	   10.0013
    3.8834 	   19.3290 	   22.0000 	   55.0000 	   10.3703
    3.7766 	   19.4185 	   22.0000 	   55.0000 	   10.7283
    3.8834 	   19.5178 	   22.0000 	   55.0000 	   11.1254
    3.9139 	   19.6185 	   22.0000 	   55.0000 	   11.5284
    3.9750 	   19.7178 	   22.0000 	   55.0000 	   11.9244
    3.9902 	   19.8178 	   22.0000 	   55.0000 	   12.3234
    3.9139 	   19.9163 	   22.0000 	   55.0000 	   12.7184
    4.0055 	   20.0098 	   22.0000 	   55.0000 	   13.0925
    3.9292 	   20.1088 	   22.0000 	   55.0000 	   13.4885
    4.0970 	   20.2088 	   22.0000 	   55.0000 	   13.8885
    4.1276 	   20.3088 	   22.0000 	   55.0000 	   14.2885
    4.0360 	   20.4095 	   22.0000 	   55.0000 	   14.6916
    4.2802 	   20.5108 	   22.0000 	   55.0000 	   15.0966
    4.1733 	   20.6125 	   22.0000 	   55.0000 	   15.5036
    4.1733 	   20.7063 	   22.0000 	   55.0000 	   15.8786
    4.1581 	   20.8055 	   22.0000 	   55.0000 	   16.2757
    4.0208 	   20.9005 	   22.0000 	   55.0000 	   16.6557
    4.3259 	   20.9990 	   22.0000 	   55.0000 	   17.0497
    4.2191 	   21.1013 	   22.0000 	   55.0000 	   17.4587
    4.4938 	   21.1913 	   22.0000 	   55.0000 	   17.8187
    4.4480 	   21.2803 	   22.0000 	   55.0000 	   18.1748
    4.3259 	   21.3693 	   22.0000 	   55.0000 	   18.5308
    4.3107 	   21.4598 	   22.0000 	   55.0000 	   18.8928
    4.2191 	   21.5610 	   22.0000 	   55.0000 	   19.2978
    4.1123 	   21.6658 	   22.0000 	   55.0000 	   19.7169
    4.2954 	   21.7663 	   22.0000 	   55.0000 	   20.1189
    4.4633 	   21.8595 	   22.0000 	   55.0000 	   20.4919
    4.4633 	   21.9493 	   22.0000 	   55.0000 	   20.8509
    4.5853 	   22.0473 	   22.0000 	   55.0000 	   21.2429
    4.4175 	   22.1435 	   22.0000 	   55.0000 	   21.6280
    4.6159 	   22.2418 	   22.0000 	   55.0000 	   22.0210
    4.5853 	   22.3428 	   22.0000 	   55.0000 	   22.4250
    4.5396 	   22.4483 	   22.0000 	   55.0000 	   22.8470
    4.6159 	   22.5523 	   22.0000 	   55.0000 	   23.2631
    4.6159 	   22.6558 	   22.0000 	   55.0000 	   23.6771
    4.4785 	   22.7590 	   22.0000 	   55.0000 	   24.0901
    4.6616 	   22.8603 	   22.0000 	   55.0000 	   24.4951
    4.7532 	   22.9595 	   22.0000 	   55.0000 	   24.8921
    4.6769 	   23.0505 	   22.0000 	   55.0000 	   25.2562
    4.7837 	   23.1408 	   22.0000 	   55.0000 	   25.6162
    4.8142 	   23.2328 	   22.0000 	   55.0000 	   25.9852
    4.7379 	   23.3263 	   22.0000 	   55.0000 	   26.3592
    4.8295 	   23.4193 	   22.0000 	   55.0000 	   26.7313
    4.7684 	   23.5218 	   22.0000 	   55.0000 	   27.1413
    4.8142 	   23.6253 	   22.0000 	   55.0000 	   27.5553
    4.9668 	   23.7273 	   22.0000 	   55.0000 	   27.9633
    4.9210 	   23.8313 	   22.0000 	   55.0000 	   28.3793
    5.0889 	   23.9273 	   22.0000 	   55.0000 	   28.7634
    4.9973 	   24.0280 	   22.0000 	   55.0000 	   29.1664
    4.9821 	   24.1330 	   22.0000 	   55.0000 	   29.5854
    4.9516 	   24.2363 	   22.0000 	   55.0000 	   29.9984
    5.2262 	   24.3415 	   22.0000 	   55.0000 	   30.4195
    5.1194 	   24.4420 	   22.0000 	   55.0000 	   30.8215
    5.2262 	   24.5360 	   22.0000 	   55.0000 	   31.1975
    5.2873 	   24.6283 	   22.0000 	   55.0000 	   31.5665
    5.2873 	   24.7290 	   22.0000 	   55.0000 	   31.9696
    5.1957 	   24.8288 	   22.0000 	   55.0000 	   32.3686
    5.3178 	   24.9265 	   22.0000 	   55.0000 	   32.7596
    5.1652 	   25.0208 	   22.0000 	   55.0000 	   33.1366
    5.2873 	   25.1175 	   22.0000 	   55.0000 	   33.5236
    5.3178 	   25.2198 	   22.0000 	   55.0000 	   33.9327
    5.3483 	   25.3248 	   22.0000 	   55.0000 	   34.3527
    5.3788 	   25.4233 	   22.0000 	   55.0000 	   34.7467
    5.4398 	   25.5175 	   22.0000 	   55.0000 	   35.1237
    5.4704 	   25.6188 	   22.0000 	   55.0000 	   35.5288
    5.3788 	   25.7168 	   22.0000 	   55.0000 	   35.9208
    5.5619 	   25.8205 	   22.0000 	   55.0000 	   36.3358
    5.5314 	   25.9230 	   22.0000 	   55.0000 	   36.7458
    5.6229 	   26.0273 	   22.0000 	   55.0000 	   37.1628
    5.8213 	   26.1215 	   22.0000 	   55.0000 	   37.5399
    5.5161 	   26.2170 	   22.0000 	   55.0000 	   37.9219
    5.6229 	   26.3120 	   22.0000 	   55.0000 	   38.3009
    5.6535 	   26.4083 	   22.0000 	   55.0000 	   38.6869
    5.6992 	   26.5045 	   22.0000 	   55.0000 	   39.0720
    5.6992 	   26.6028 	   22.0000 	   55.0000 	   39.4650
    5.8061 	   26.6965 	   22.0000 	   55.0000 	   39.8400
    5.9586 	   26.7978 	   22.0000 	   55.0000 	   40.2450
    5.8671 	   26.9003 	   22.0000 	   55.0000 	   40.6550
    5.8976 	   27.0070 	   22.0000 	   55.0000 	   41.0821
    5.8976 	   27.1155 	   22.0000 	   55.0000 	   41.5161
    5.9129 	   27.2200 	   22.0000 	   55.0000 	   41.9341
    6.0807 	   27.3255 	   22.0000 	   55.0000 	   42.3561
    5.9434 	   27.4285 	   22.0000 	   55.0000 	   42.7682
    6.0197 	   27.5303 	   22.0000 	   55.0000 	   43.1752
    6.0044 	   27.6278 	   22.0000 	   55.0000 	   43.5652
    6.2181 	   27.7225 	   22.0000 	   55.0000 	   43.9442
    6.1570 	   27.8195 	   22.0000 	   55.0000 	   44.3323
    5.8518 	   27.9140 	   22.0000 	   55.0000 	   44.7103
    6.2486 	   28.0160 	   22.0000 	   55.0000 	   45.1183
    6.3554 	   28.1198 	   22.0000 	   55.0000 	   45.5333
    6.2333 	   28.2210 	   22.0000 	   55.0000 	   45.9384
    6.4012 	   28.3173 	   22.0000 	   55.0000 	   46.3234
    6.4317 	   28.4215 	   22.0000 	   55.0000 	   46.7394
    6.5080 	   28.5280 	   22.0000 	   55.0000 	   47.1654
    6.4164 	   28.6353 	   22.0000 	   55.0000 	   47.5944
    6.4317 	   28.7440 	   22.0000 	   55.0000 	   48.0295
    6.5537 	   28.8488 	   22.0000 	   55.0000 	   48.4485
    6.5537 	   28.9455 	   22.0000 	   55.0000 	   48.8355
    6.6300 	   29.0463 	   22.0000 	   55.0000 	   49.2385
    6.5690 	   29.1440 	   22.0000 	   55.0000 	   49.6296
    6.6453 	   29.2415 	   22.0000 	   55.0000 	   50.0196
    6.6606 	   29.3465 	   22.0000 	   55.0000 	   50.4396
    6.7369 	   29.4440 	   22.0000 	   55.0000 	   50.8296
    6.6453 	   29.5448 	   22.0000 	   55.0000 	   51.2327
    6.9657 	   29.6525 	   22.0000 	   55.0000 	   51.6637
    6.7979 	   29.7530 	   22.0000 	   55.0000 	   52.0657
    7.0115 	   29.8585 	   22.0000 	   55.0000 	   52.4877
    7.1031 	   29.9678 	   22.0000 	   55.0000 	   52.9247
    6.9963 	   30.0740 	   22.0000 	   55.0000 	   53.3498
    7.1641 	   30.1770 	   22.0000 	   55.0000 	   53.7618
    7.3320 	   30.2880 	   22.0000 	   55.0000 	   54.2058
    7.0726 	   30.3920 	   22.0000 	   55.0000 	   54.6218
    7.3014 	   30.4903 	   22.0000 	   55.0000 	   55.0149
    7.2251 	   30.5923 	   22.0000 	   55.0000 	   55.4229
    7.4235 	   30.6973 	   22.0000 	   55.0000 	   55.8429
    7.5761 	   30.7980 	   22.0000 	   55.0000 	   56.2459
    7.3777 	   30.8983 	   22.0000 	   55.0000 	   56.6470
    7.3625 	   30.9965 	   22.0000 	   55.0000 	   57.0400
    7.4388 	   31.1008 	   22.0000 	   55.0000 	   57.4570
    7.4998 	   31.2063 	   22.0000 	   55.0000 	   57.8790
    7.6677 	   31.3085 	   22.0000 	   55.0000 	   58.2881
    8.0034 	   31.4143 	   22.0000 	   55.0000 	   58.7111
    7.7592 	   31.5165 	   22.0000 	   55.0000 	   59.1201
    7.9118 	   31.6158 	   22.0000 	   55.0000 	   59.5171
    7.8508 	   31.7188 	   22.0000 	   55.0000 	   59.9291
    7.9576 	   31.8213 	   22.0000 	   56.0000 	    0.3392
    7.8813 	   31.9213 	   22.0000 	   56.0000 	    0.7392
    8.0034 	   32.0300 	   22.0000 	   56.0000 	    1.1742
    7.9576 	   32.1338 	   22.0000 	   56.0000 	    1.5892
    8.2017 	   32.2368 	   22.0000 	   56.0000 	    2.0013
    8.2933 	   32.3363 	   22.0000 	   56.0000 	    2.3993
    8.3696 	   32.4358 	   22.0000 	   56.0000 	    2.7973
    8.2780 	   32.5360 	   22.0000 	   56.0000 	    3.1983
    8.1865 	   32.6350 	   22.0000 	   56.0000 	    3.5944
    8.3085 	   32.7438 	   22.0000 	   56.0000 	    4.0294
    8.5222 	   32.8463 	   22.0000 	   56.0000 	    4.4384
    8.5222 	   32.9463 	   22.0000 	   56.0000 	    4.8384
    8.7663 	   33.0480 	   22.0000 	   56.0000 	    5.2455
    8.6595 	   33.1483 	   22.0000 	   56.0000 	    5.6465
    8.9647 	   33.2508 	   22.0000 	   56.0000 	    6.0565
    8.8273 	   33.3505 	   22.0000 	   56.0000 	    6.4555
    9.0257 	   33.4508 	   22.0000 	   56.0000 	    6.8565
    9.0105 	   33.5573 	   22.0000 	   56.0000 	    7.2826
    9.0715 	   33.6650 	   22.0000 	   56.0000 	    7.7136
    9.0257 	   33.7723 	   22.0000 	   56.0000 	    8.1426
    9.0410 	   33.8750 	   22.0000 	   56.0000 	    8.5536
    9.3004 	   33.9808 	   22.0000 	   56.0000 	    8.9767
    9.3309 	   34.0933 	   22.0000 	   56.0000 	    9.4267
    9.3462 	   34.2028 	   22.0000 	   56.0000 	    9.8647
    9.5140 	   34.3160 	   22.0000 	   56.0000 	   10.3177
    9.6208 	   34.4210 	   22.0000 	   56.0000 	   10.7378
    9.6971 	   34.5270 	   22.0000 	   56.0000 	   11.1618
    9.8497 	   34.6313 	   22.0000 	   56.0000 	   11.5788
    9.8497 	   34.7327 	   22.0000 	   56.0000 	   11.9848
    9.8039 	   34.8358 	   22.0000 	   56.0000 	   12.3969
   10.0786 	   34.9540 	   22.0000 	   56.0000 	   12.8699
   10.0481 	   35.0585 	   22.0000 	   56.0000 	   13.2879
    9.8802 	   35.1638 	   22.0000 	   56.0000 	   13.7089
   10.2770 	   35.2698 	   22.0000 	   56.0000 	   14.1330
   10.3532 	   35.3748 	   22.0000 	   56.0000 	   14.5530
   10.4295 	   35.4830 	   22.0000 	   56.0000 	   14.9860
   10.5364 	   35.5960 	   22.0000 	   56.0000 	   15.4380
   10.5821 	   35.7008 	   22.0000 	   56.0000 	   15.8571
   10.8415 	   35.8068 	   22.0000 	   56.0000 	   16.2811
   10.9331 	   35.9130 	   22.0000 	   56.0000 	   16.7061
   11.0399 	   36.0220 	   22.0000 	   56.0000 	   17.1421
   10.9636 	   36.1270 	   22.0000 	   56.0000 	   17.5622
   11.1162 	   36.2350 	   22.0000 	   56.0000 	   17.9942
   11.2840 	   36.3445 	   22.0000 	   56.0000 	   18.4322
   11.3603 	   36.4560 	   22.0000 	   56.0000 	   18.8782
   11.6197 	   36.5683 	   22.0000 	   56.0000 	   19.3273
   11.6503 	   36.6785 	   22.0000 	   56.0000 	   19.7683
   11.4214 	   36.7908 	   22.0000 	   56.0000 	   20.2173
   11.9860 	   36.8950 	   22.0000 	   56.0000 	   20.6343
   11.9860 	   37.0055 	   22.0000 	   56.0000 	   21.0764
   12.3217 	   37.1115 	   22.0000 	   56.0000 	   21.5004
   12.2454 	   37.2165 	   22.0000 	   56.0000 	   21.9194
   12.4742 	   37.3273 	   22.0000 	   56.0000 	   22.3624
   12.3217 	   37.4428 	   22.0000 	   56.0000 	   22.8245
   12.6268 	   37.5498 	   22.0000 	   56.0000 	   23.2525
   12.9778 	   37.6570 	   22.0000 	   56.0000 	   23.6815
   12.8862 	   37.7693 	   22.0000 	   56.0000 	   24.1305
   12.7642 	   37.8763 	   22.0000 	   56.0000 	   24.5586
   13.2219 	   37.9860 	   22.0000 	   56.0000 	   24.9976
   13.4051 	   38.0930 	   22.0000 	   56.0000 	   25.4256
   13.6492 	   38.2053 	   22.0000 	   56.0000 	   25.8746
   13.5729 	   38.3138 	   22.0000 	   56.0000 	   26.3087
   13.8781 	   38.4190 	   22.0000 	   56.0000 	   26.7297
   14.0002 	   38.5265 	   22.0000 	   56.0000 	   27.1597
   14.0459 	   38.6365 	   22.0000 	   56.0000 	   27.5997
   14.2443 	   38.7448 	   22.0000 	   56.0000 	   28.0328
   14.3816 	   38.8553 	   22.0000 	   56.0000 	   28.4748
   14.6563 	   38.9640 	   22.0000 	   56.0000 	   28.9098
   14.6105 	   39.0720 	   22.0000 	   56.0000 	   29.3418
   15.0225 	   39.1783 	   22.0000 	   56.0000 	   29.7669
   15.0072 	   39.2845 	   22.0000 	   56.0000 	   30.1919
   14.9004 	   39.3938 	   22.0000 	   56.0000 	   30.6289
   15.0835 	   39.5005 	   22.0000 	   56.0000 	   31.0559
   15.2667 	   39.6098 	   22.0000 	   56.0000 	   31.4930
   15.5108 	   39.7165 	   22.0000 	   56.0000 	   31.9200
   15.8618 	   39.8263 	   22.0000 	   56.0000 	   32.3590
   15.9075 	   39.9335 	   22.0000 	   56.0000 	   32.7880
   15.8160 	   40.0440 	   22.0000 	   56.0000 	   33.2301
   16.3043 	   40.1510 	   22.0000 	   56.0000 	   33.6581
   16.3958 	   40.2598 	   22.0000 	   56.0000 	   34.0931
   16.5789 	   40.3673 	   22.0000 	   56.0000 	   34.5231
   16.8383 	   40.4753 	   22.0000 	   56.0000 	   34.9552
   17.2808 	   40.5825 	   22.0000 	   56.0000 	   35.3842
   17.2808 	   40.6893 	   22.0000 	   56.0000 	   35.8112
   17.4334 	   40.8035 	   22.0000 	   56.0000 	   36.2682
   17.4182 	   40.9150 	   22.0000 	   56.0000 	   36.7143
   17.1740 	   41.0238 	   22.0000 	   56.0000 	   37.1493
   17.0367 	   41.1328 	   22.0000 	   56.0000 	   37.5853
   17.0214 	   41.2473 	   22.0000 	   56.0000 	   38.0433
   16.8231 	   41.3585 	   22.0000 	   56.0000 	   38.4884
   16.7468 	   41.4688 	   22.0000 	   56.0000 	   38.9294
   16.8231 	   41.5920 	   22.0000 	   56.0000 	   39.4214
   16.7010 	   41.7055 	   22.0000 	   56.0000 	   39.8754
   16.6094 	   41.8198 	   22.0000 	   56.0000 	   40.3325
   16.5637 	   41.9308 	   22.0000 	   56.0000 	   40.7765
   16.7010 	   42.0448 	   22.0000 	   56.0000 	   41.2325
   16.6857 	   42.1593 	   22.0000 	   56.0000 	   41.6905
   16.7163 	   42.2738 	   22.0000 	   56.0000 	   42.1486
   16.5942 	   42.3973 	   22.0000 	   56.0000 	   42.6426
   16.4569 	   42.5103 	   22.0000 	   56.0000 	   43.0946
   16.4111 	   42.6348 	   22.0000 	   56.0000 	   43.5926
   16.3806 	   42.7525 	   22.0000 	   56.0000 	   44.0637
   16.3195 	   42.8640 	   22.0000 	   56.0000 	   44.5097
   16.3653 	   42.9720 	   22.0000 	   56.0000 	   44.9417
   16.3500 	   43.0815 	   22.0000 	   56.0000 	   45.3797
   16.3500 	   43.1893 	   22.0000 	   56.0000 	   45.8108
   16.1822 	   43.2980 	   22.0000 	   56.0000 	   46.2458
   16.2737 	   43.4123 	   22.0000 	   56.0000 	   46.7028
   16.0906 	   43.5303 	   22.0000 	   56.0000 	   47.1749
   16.0906 	   43.6390 	   22.0000 	   56.0000 	   47.6099
   15.9686 	   43.7580 	   22.0000 	   56.0000 	   48.0859
   16.0906 	   43.8683 	   22.0000 	   56.0000 	   48.5269
   15.9533 	   43.9843 	   22.0000 	   56.0000 	   48.9910
   15.9228 	   44.0988 	   22.0000 	   56.0000 	   49.4490
   15.8618 	   44.2178 	   22.0000 	   56.0000 	   49.9250
   16.0754 	   44.3335 	   22.0000 	   56.0000 	   50.3880
   15.8923 	   44.4503 	   22.0000 	   56.0000 	   50.8551
   16.0754 	   44.5660 	   22.0000 	   56.0000 	   51.3181
   15.9380 	   44.6793 	   22.0000 	   56.0000 	   51.7711
   15.8618 	   44.7963 	   22.0000 	   56.0000 	   52.2391
   15.8160 	   44.9095 	   22.0000 	   56.0000 	   52.6922
   15.8465 	   45.0313 	   22.0000 	   56.0000 	   53.1792
   15.7702 	   45.1408 	   22.0000 	   56.0000 	   53.6172
   15.7092 	   45.2565 	   22.0000 	   56.0000 	   54.0802
   15.7855 	   45.3683 	   22.0000 	   56.0000 	   54.5273
   15.6024 	   45.4858 	   22.0000 	   56.0000 	   54.9973
   15.6481 	   45.5995 	   22.0000 	   56.0000 	   55.4523
   15.3124 	   45.7140 	   22.0000 	   56.0000 	   55.9104
   15.6176 	   45.8288 	   22.0000 	   56.0000 	   56.3694
   15.6939 	   45.9450 	   22.0000 	   56.0000 	   56.8334
   15.6939 	   46.0655 	   22.0000 	   56.0000 	   57.3154
   15.6176 	   46.1775 	   22.0000 	   56.0000 	   57.7635
   15.5108 	   46.2935 	   22.0000 	   56.0000 	   58.2275
   15.6786 	   46.4048 	   22.0000 	   56.0000 	   58.6715
   15.4192 	   46.5198 	   22.0000 	   56.0000 	   59.1325
   15.3582 	   46.6308 	   22.0000 	   56.0000 	   59.5766
   15.8007 	   46.7420 	   22.0000 	   57.0000 	    0.0216
   15.4803 	   46.8570 	   22.0000 	   57.0000 	    0.4816
   15.3429 	   46.9703 	   22.0000 	   57.0000 	    0.9346
   15.3887 	   47.0833 	   22.0000 	   57.0000 	    1.3867
   15.3887 	   47.1950 	   22.0000 	   57.0000 	    1.8337
   15.6024 	   47.3070 	   22.0000 	   57.0000 	    2.2817
   15.2819 	   47.4193 	   22.0000 	   57.0000 	    2.7307
   15.4192 	   47.5313 	   22.0000 	   57.0000 	    3.1788
   15.4498 	   47.6428 	   22.0000 	   57.0000 	    3.6248
   15.5413 	   47.7548 	   22.0000 	   57.0000 	    4.0728
   15.2667 	   47.8668 	   22.0000 	   57.0000 	    4.5208
   15.4650 	   47.9788 	   22.0000 	   57.0000 	    4.9689
   15.3124 	   48.0923 	   22.0000 	   57.0000 	    5.4229
   15.3582 	   48.2070 	   22.0000 	   57.0000 	    5.8819
   15.3887 	   48.3238 	   22.0000 	   57.0000 	    6.3489
   15.2209 	   48.4365 	   22.0000 	   57.0000 	    6.8000
   15.2972 	   48.5500 	   22.0000 	   57.0000 	    7.2540
   15.1751 	   48.6640 	   22.0000 	   57.0000 	    7.7100
   15.3429 	   48.7775 	   22.0000 	   57.0000 	    8.1641
   15.2361 	   48.8938 	   22.0000 	   57.0000 	    8.6291
   15.2209 	   49.0180 	   22.0000 	   57.0000 	    9.1261
   15.1751 	   49.1353 	   22.0000 	   57.0000 	    9.5951
   15.2514 	   49.2588 	   22.0000 	   57.0000 	   10.0892
   15.2361 	   49.3800 	   22.0000 	   57.0000 	   10.5742
   15.1293 	   49.5015 	   22.0000 	   57.0000 	   11.0602
   15.4192 	   49.6238 	   22.0000 	   57.0000 	   11.5492
   15.3124 	   49.7470 	   22.0000 	   57.0000 	   12.0423
   15.0683 	   49.8725 	   22.0000 	   57.0000 	   12.5443
   15.1751 	   49.9960 	   22.0000 	   57.0000 	   13.0383
   15.2209 	   50.1195 	   22.0000 	   57.0000 	   13.5314
   14.9462 	   50.2365 	   22.0000 	   57.0000 	   14.0004
   15.0225 	   50.3630 	   22.0000 	   57.0000 	   14.5054
   15.0835 	   50.4905 	   22.0000 	   57.0000 	   15.0154
   15.2667 	   50.6143 	   22.0000 	   57.0000 	   15.5105
   15.1446 	   50.7395 	   22.0000 	   57.0000 	   16.0115
   15.2209 	   50.8640 	   22.0000 	   57.0000 	   16.5095
   15.0378 	   50.9855 	   22.0000 	   57.0000 	   16.9956
   15.0683 	   51.1095 	   22.0000 	   57.0000 	   17.4916
   15.0530 	   51.2353 	   22.0000 	   57.0000 	   17.9946
   15.0988 	   51.3623 	   22.0000 	   57.0000 	   18.5026
   15.1598 	   51.4885 	   22.0000 	   57.0000 	   19.0077
   15.0378 	   51.6148 	   22.0000 	   57.0000 	   19.5127
   15.0072 	   51.7400 	   22.0000 	   57.0000 	   20.0137
   15.0683 	   51.8633 	   22.0000 	   57.0000 	   20.5068
   14.9462 	   51.9900 	   22.0000 	   57.0000 	   21.0138
   14.9615 	   52.1155 	   22.0000 	   57.0000 	   21.5158
   14.8852 	   52.2435 	   22.0000 	   57.0000 	   22.0278
   14.9310 	   52.3705 	   22.0000 	   57.0000 	   22.5359
   14.9004 	   52.4960 	   22.0000 	   57.0000 	   23.0379
   14.9767 	   52.6173 	   22.0000 	   57.0000 	   23.5229
   14.6563 	   52.7403 	   22.0000 	   57.0000 	   24.0150
   14.9767 	   52.8658 	   22.0000 	   57.0000 	   24.5170
   14.8241 	   52.9858 	   22.0000 	   57.0000 	   24.9970
   14.9157 	   53.1108 	   22.0000 	   57.0000 	   25.4970
   14.8089 	   53.2355 	   22.0000 	   57.0000 	   25.9961
   14.8089 	   53.3623 	   22.0000 	   57.0000 	   26.5031
   14.8852 	   53.4888 	   22.0000 	   57.0000 	   27.0091
   14.8852 	   53.6145 	   22.0000 	   57.0000 	   27.5122
   14.9157 	   53.7438 	   22.0000 	   57.0000 	   28.0292
   14.8241 	   53.8683 	   22.0000 	   57.0000 	   28.5272
   14.9157 	   53.9935 	   22.0000 	   57.0000 	   29.0282
   14.8394 	   54.1168 	   22.0000 	   57.0000 	   29.5213
   14.8699 	   54.2388 	   22.0000 	   57.0000 	   30.0093
   14.8089 	   54.3658 	   22.0000 	   57.0000 	   30.5173
   14.9920 	   54.4898 	   22.0000 	   57.0000 	   31.0134
   15.0225 	   54.6110 	   22.0000 	   57.0000 	   31.4984
   14.8699 	   54.7418 	   22.0000 	   57.0000 	   32.0204
   14.9157 	   54.8698 	   22.0000 	   57.0000 	   32.5324
   14.8089 	   54.9900 	   22.0000 	   57.0000 	   33.0135
   14.7326 	   55.1120 	   22.0000 	   57.0000 	   33.5015
   14.8241 	   55.2378 	   22.0000 	   57.0000 	   34.0045
   14.8241 	   55.3638 	   22.0000 	   57.0000 	   34.5086
   14.7936 	   55.4918 	   22.0000 	   57.0000 	   35.0206
   14.6715 	   55.6193 	   22.0000 	   57.0000 	   35.5306
   14.7173 	   55.7488 	   22.0000 	   57.0000 	   36.0486
   14.7021 	   55.8730 	   22.0000 	   57.0000 	   36.5457
   14.6868 	   55.9988 	   22.0000 	   57.0000 	   37.0487
   14.7021 	   56.1223 	   22.0000 	   57.0000 	   37.5427
   14.5953 	   56.2455 	   22.0000 	   57.0000 	   38.0358
   14.5495 	   56.3743 	   22.0000 	   57.0000 	   38.5508
   14.7021 	   56.5010 	   22.0000 	   57.0000 	   39.0578
   14.7936 	   56.6308 	   22.0000 	   57.0000 	   39.5769
   14.5953 	   56.7565 	   22.0000 	   57.0000 	   40.0799
   14.8241 	   56.8808 	   22.0000 	   57.0000 	   40.5769
   14.6868 	   57.0030 	   22.0000 	   57.0000 	   41.0659
   14.5953 	   57.1313 	   22.0000 	   57.0000 	   41.5790
   14.7936 	   57.2588 	   22.0000 	   57.0000 	   42.0890
   14.6258 	   57.3823 	   22.0000 	   57.0000 	   42.5830
   14.6563 	   57.5108 	   22.0000 	   57.0000 	   43.0970
   14.6563 	   57.6413 	   22.0000 	   57.0000 	   43.6191
   14.7021 	   57.7700 	   22.0000 	   57.0000 	   44.1341
   14.7631 	   57.8993 	   22.0000 	   57.0000 	   44.6511
   14.6410 	   58.0323 	   22.0000 	   57.0000 	   45.1832
   14.7021 	   58.1608 	   22.0000 	   57.0000 	   45.6972
   14.6410 	   58.2860 	   22.0000 	   57.0000 	   46.1982
   14.5647 	   58.4105 	   22.0000 	   57.0000 	   46.6963
   14.6105 	   58.5368 	   22.0000 	   57.0000 	   47.2013
   14.5800 	   58.6613 	   22.0000 	   57.0000 	   47.6993
   14.5953 	   58.7950 	   22.0000 	   57.0000 	   48.2343
   14.6410 	   58.9210 	   22.0000 	   57.0000 	   48.7384
   14.4274 	   59.0543 	   22.0000 	   57.0000 	   49.2704
   13.4356 	   59.1840 	   22.0000 	   57.0000 	   49.7894
   12.7184 	   59.3143 	   22.0000 	   57.0000 	   50.3105
   12.5963 	   59.4395 	   22.0000 	   57.0000 	   50.8115
   12.1996 	   59.5670 	   22.0000 	   57.0000 	   51.3215
   11.7266 	   59.6948 	   22.0000 	   57.0000 	   51.8326
   11.2688 	   59.8275 	   22.0000 	   57.0000 	   52.3636
   10.9331 	   59.9543 	   22.0000 	   57.0000 	   52.8706
   10.5821 	   60.0903 	   22.0000 	   57.0000 	   53.4146
   10.1244 	   60.2240 	   22.0000 	   57.0000 	   53.9497
    9.8497 	   60.3573 	   22.0000 	   57.0000 	   54.4827
    9.4530 	   60.4930 	   22.0000 	   57.0000 	   55.0257
    9.1783 	   60.6223 	   22.0000 	   57.0000 	   55.5428
    8.9342 	   60.7543 	   22.0000 	   57.0000 	   56.0708
    8.8426 	   60.8808 	   22.0000 	   57.0000 	   56.5768
    8.6137 	   61.0148 	   22.0000 	   57.0000 	   57.1129
    8.5222 	   61.1503 	   22.0000 	   57.0000 	   57.6549
    7.9881 	   61.2798 	   22.0000 	   57.0000 	   58.1729
    7.9118 	   61.4105 	   22.0000 	   57.0000 	   58.6959
    7.4845 	   61.5435 	   22.0000 	   57.0000 	   59.2280
    7.6982 	   61.6775 	   22.0000 	   57.0000 	   59.7640
    7.4693 	   61.8130 	   22.0000 	   58.0000 	    0.3060
    7.4235 	   61.9483 	   22.0000 	   58.0000 	    0.8471
    7.2862 	   62.0828 	   22.0000 	   58.0000 	    1.3851
    6.9963 	   62.2148 	   22.0000 	   58.0000 	    1.9131
    7.1489 	   62.3508 	   22.0000 	   58.0000 	    2.4572
    6.9657 	   62.4863 	   22.0000 	   58.0000 	    2.9992
    6.6300 	   62.6205 	   22.0000 	   58.0000 	    3.5362
    6.6148 	   62.7563 	   22.0000 	   58.0000 	    4.0793
    6.4775 	   62.8878 	   22.0000 	   58.0000 	    4.6053
    6.3859 	   63.0185 	   22.0000 	   58.0000 	    5.1283
    6.3096 	   63.1500 	   22.0000 	   58.0000 	    5.6543
    6.3401 	   63.2818 	   22.0000 	   58.0000 	    6.1814
    6.0807 	   63.4168 	   22.0000 	   58.0000 	    6.7204
    6.1418 	   63.5480 	   22.0000 	   58.0000 	    7.2454
    6.0655 	   63.6805 	   22.0000 	   58.0000 	    7.7755
    5.9586 	   63.8150 	   22.0000 	   58.0000 	    8.3135
    5.7603 	   63.9485 	   22.0000 	   58.0000 	    8.8475
    5.7450 	   64.0853 	   22.0000 	   58.0000 	    9.3946
    5.6382 	   64.2218 	   22.0000 	   58.0000 	    9.9406
    5.6687 	   64.3593 	   22.0000 	   58.0000 	   10.4906
    5.6077 	   64.4900 	   22.0000 	   58.0000 	   11.0136
    5.6229 	   64.6178 	   22.0000 	   58.0000 	   11.5247
    5.3635 	   64.7528 	   22.0000 	   58.0000 	   12.0647
    5.4246 	   64.8873 	   22.0000 	   58.0000 	   12.6027
    5.3025 	   65.0173 	   22.0000 	   58.0000 	   13.1228
    5.3178 	   65.1503 	   22.0000 	   58.0000 	   13.6548
    5.2873 	   65.2790 	   22.0000 	   58.0000 	   14.1698
    5.2873 	   65.4140 	   22.0000 	   58.0000 	   14.7099
    5.1194 	   65.5495 	   22.0000 	   58.0000 	   15.2519
    5.0278 	   65.6850 	   22.0000 	   58.0000 	   15.7939
    5.1804 	   65.8185 	   22.0000 	   58.0000 	   16.3280
    5.0126 	   65.9513 	   22.0000 	   58.0000 	   16.8580
    4.9668 	   66.0803 	   22.0000 	   58.0000 	   17.3750
    4.8905 	   66.2165 	   22.0000 	   58.0000 	   17.9200
    4.9668 	   66.3555 	   22.0000 	   58.0000 	   18.4761
    4.6921 	   66.4878 	   22.0000 	   58.0000 	   19.0051
    4.8447 	   66.6243 	   22.0000 	   58.0000 	   19.5511
    4.7379 	   66.7635 	   22.0000 	   58.0000 	   20.1082
    4.7379 	   66.9013 	   22.0000 	   58.0000 	   20.6592
    4.5701 	   67.0345 	   22.0000 	   58.0000 	   21.1922
    4.2954 	   67.1680 	   22.0000 	   58.0000 	   21.7263
    4.5243 	   67.3040 	   22.0000 	   58.0000 	   22.2703
    4.3717 	   67.4405 	   22.0000 	   58.0000 	   22.8163
    4.3565 	   67.5765 	   22.0000 	   58.0000 	   23.3604
    4.5243 	   67.7148 	   22.0000 	   58.0000 	   23.9134
    4.4327 	   67.8545 	   22.0000 	   58.0000 	   24.4714
    4.1886 	   67.9920 	   22.0000 	   58.0000 	   25.0214
    4.4480 	   68.1273 	   22.0000 	   58.0000 	   25.5625
    4.4633 	   68.2600 	   22.0000 	   58.0000 	   26.0935
    4.4022 	   68.4000 	   22.0000 	   58.0000 	   26.6535
    4.2039 	   68.5360 	   22.0000 	   58.0000 	   27.1976
    4.2191 	   68.6735 	   22.0000 	   58.0000 	   27.7476
    4.1276 	   68.8145 	   22.0000 	   58.0000 	   28.3116
    4.1428 	   68.9525 	   22.0000 	   58.0000 	   28.8637
    4.0665 	   69.0923 	   22.0000 	   58.0000 	   29.4227
    3.7919 	   69.2340 	   22.0000 	   58.0000 	   29.9897
    4.0055 	   69.3763 	   22.0000 	   58.0000 	   30.5588
    3.9597 	   69.5155 	   22.0000 	   58.0000 	   31.1158
    3.8529 	   69.6545 	   22.0000 	   58.0000 	   31.6718
    3.9292 	   69.7905 	   22.0000 	   58.0000 	   32.2159
    3.9292 	   69.9325 	   22.0000 	   58.0000 	   32.7839
    3.7613 	   70.0705 	   22.0000 	   58.0000 	   33.3359
    3.8834 	   70.2103 	   22.0000 	   58.0000 	   33.8950
    3.8224 	   70.3480 	   22.0000 	   58.0000 	   34.4460
    3.7308 	   70.4830 	   22.0000 	   58.0000 	   34.9860
    3.5782 	   70.6198 	   22.0000 	   58.0000 	   35.5331
    3.7156 	   70.7583 	   22.0000 	   58.0000 	   36.0871
    3.5935 	   70.8975 	   22.0000 	   58.0000 	   36.6441
    3.6393 	   71.0385 	   22.0000 	   58.0000 	   37.2081
    3.5935 	   71.1698 	   22.0000 	   58.0000 	   37.7332
    3.5782 	   71.3015 	   22.0000 	   58.0000 	   38.2602
    3.6698 	   71.4345 	   22.0000 	   58.0000 	   38.7922
    3.4257 	   71.5728 	   22.0000 	   58.0000 	   39.3453
    3.5019 	   71.7095 	   22.0000 	   58.0000 	   39.8923
    3.5172 	   71.8490 	   22.0000 	   58.0000 	   40.4503
    3.4714 	   71.9860 	   22.0000 	   58.0000 	   40.9984
    3.3646 	   72.1220 	   22.0000 	   58.0000 	   41.5414
    3.3646 	   72.2595 	   22.0000 	   58.0000 	   42.0914
    3.4257 	   72.3955 	   22.0000 	   58.0000 	   42.6355
    3.2273 	   72.5353 	   22.0000 	   58.0000 	   43.1945
    3.2273 	   72.6778 	   22.0000 	   58.0000 	   43.7645
    3.1968 	   72.8135 	   22.0000 	   58.0000 	   44.3076
    3.2120 	   72.9545 	   22.0000 	   58.0000 	   44.8716
    2.9679 	   73.0905 	   22.0000 	   58.0000 	   45.4156
    3.2731 	   73.2260 	   22.0000 	   58.0000 	   45.9576
    3.2578 	   73.3615 	   22.0000 	   58.0000 	   46.4997
    2.8458 	   73.5030 	   22.0000 	   58.0000 	   47.0657
    3.2425 	   73.6408 	   22.0000 	   58.0000 	   47.6167
    2.7237 	   73.7850 	   22.0000 	   58.0000 	   48.1938
    3.2273 	   73.9288 	   22.0000 	   58.0000 	   48.7688
    2.9374 	   74.0718 	   22.0000 	   58.0000 	   49.3408
    3.1357 	   74.2088 	   22.0000 	   58.0000 	   49.8889
    2.9526 	   74.3545 	   22.0000 	   58.0000 	   50.4719
    2.6474 	   74.4960 	   22.0000 	   58.0000 	   51.0379
    2.7543 	   74.6418 	   22.0000 	   58.0000 	   51.6210
    2.9831 	   74.7805 	   22.0000 	   58.0000 	   52.1760
    2.8763 	   74.9220 	   22.0000 	   58.0000 	   52.7420
    2.9068 	   75.0648 	   22.0000 	   58.0000 	   53.3131
    2.7695 	   75.2053 	   22.0000 	   58.0000 	   53.8751
    2.7848 	   75.3423 	   22.0000 	   58.0000 	   54.4231
    2.7695 	   75.4850 	   22.0000 	   58.0000 	   54.9942
    2.6322 	   75.6230 	   22.0000 	   58.0000 	   55.5462
    2.8153 	   75.7678 	   22.0000 	   58.0000 	   56.1252
    2.8153 	   75.9123 	   22.0000 	   58.0000 	   56.7033
    2.6169 	   76.0538 	   22.0000 	   58.0000 	   57.2693
    2.6932 	   76.1940 	   22.0000 	   58.0000 	   57.8303
    2.6322 	   76.3310 	   22.0000 	   58.0000 	   58.3784
    2.6169 	   76.4698 	   22.0000 	   58.0000 	   58.9334
    2.5864 	   76.6145 	   22.0000 	   58.0000 	   59.5114
    2.5406 	   76.7553 	   22.0000 	   59.0000 	    0.0745
    2.5864 	   76.9020 	   22.0000 	   59.0000 	    0.6615
    2.5559 	   77.0410 	   22.0000 	   59.0000 	    1.2175
    2.5864 	   77.1825 	   22.0000 	   59.0000 	    1.7836
    2.4643 	   77.3253 	   22.0000 	   59.0000 	    2.3546
    2.6169 	   77.4670 	   22.0000 	   59.0000 	    2.9216
    2.5101 	   77.6083 	   22.0000 	   59.0000 	    3.4866
    2.3880 	   77.7475 	   22.0000 	   59.0000 	    4.0437
    2.2812 	   77.8900 	   22.0000 	   59.0000 	    4.6137
    2.3880 	   78.0355 	   22.0000 	   59.0000 	    5.1957
    2.4033 	   78.1790 	   22.0000 	   59.0000 	    5.7698
    2.4186 	   78.3190 	   22.0000 	   59.0000 	    6.3298
    2.4186 	   78.4615 	   22.0000 	   59.0000 	    6.8998
    2.3728 	   78.6043 	   22.0000 	   59.0000 	    7.4709
    2.3880 	   78.7443 	   22.0000 	   59.0000 	    8.0309
    2.3270 	   78.8905 	   22.0000 	   59.0000 	    8.6159
    2.1592 	   79.0330 	   22.0000 	   59.0000 	    9.1860
    2.3117 	   79.1800 	   22.0000 	   59.0000 	    9.7740
    2.4033 	   79.3188 	   22.0000 	   59.0000 	   10.3290
    2.0676 	   79.4573 	   22.0000 	   59.0000 	   10.8831
    2.2507 	   79.6003 	   22.0000 	   59.0000 	   11.4551
    2.1592 	   79.7488 	   22.0000 	   59.0000 	   12.0491
    2.1439 	   79.8913 	   22.0000 	   59.0000 	   12.6192
    2.1134 	   80.0350 	   22.0000 	   59.0000 	   13.1942
    2.0523 	   80.1778 	   22.0000 	   59.0000 	   13.7652
    2.0371 	   80.3200 	   22.0000 	   59.0000 	   14.3343
    1.8997 	   80.4588 	   22.0000 	   59.0000 	   14.8893
    1.8387 	   80.6038 	   22.0000 	   59.0000 	   15.4693
    1.9760 	   80.7425 	   22.0000 	   59.0000 	   16.0244
    1.9913 	   80.8908 	   22.0000 	   59.0000 	   16.6164
    2.0523 	   81.0405 	   22.0000 	   59.0000 	   17.2154
    2.0066 	   81.1828 	   22.0000 	   59.0000 	   17.7845
    1.9150 	   81.3248 	   22.0000 	   59.0000 	   18.3525
    1.7777 	   81.4653 	   22.0000 	   59.0000 	   18.9145
    1.8387 	   81.6105 	   22.0000 	   59.0000 	   19.4956
    1.8692 	   81.7515 	   22.0000 	   59.0000 	   20.0596
    1.8540 	   81.8938 	   22.0000 	   59.0000 	   20.6286
    1.8540 	   82.0420 	   22.0000 	   59.0000 	   21.2217
    1.9608 	   82.1845 	   22.0000 	   59.0000 	   21.7917
    1.7472 	   82.3320 	   22.0000 	   59.0000 	   22.3817
    1.8692 	   82.4748 	   22.0000 	   59.0000 	   22.9528
    1.7777 	   82.6208 	   22.0000 	   59.0000 	   23.5368
    1.7014 	   82.7643 	   22.0000 	   59.0000 	   24.1108
    1.5183 	   82.9080 	   22.0000 	   59.0000 	   24.6859
    1.5030 	   83.0565 	   22.0000 	   59.0000 	   25.2799
    1.8387 	   83.1983 	   22.0000 	   59.0000 	   25.8469
    1.4878 	   83.3480 	   22.0000 	   59.0000 	   26.4460
    1.6556 	   83.4960 	   22.0000 	   59.0000 	   27.0380
    1.5335 	   83.6453 	   22.0000 	   59.0000 	   27.6350
    1.5946 	   83.7930 	   22.0000 	   59.0000 	   28.2261
    1.5640 	   83.9360 	   22.0000 	   59.0000 	   28.7981
    1.5793 	   84.0850 	   22.0000 	   59.0000 	   29.3941
    1.5335 	   84.2283 	   22.0000 	   59.0000 	   29.9672
    1.4115 	   84.3720 	   22.0000 	   59.0000 	   30.5422
    1.4420 	   84.5173 	   22.0000 	   59.0000 	   31.1232
    1.3962 	   84.6608 	   22.0000 	   59.0000 	   31.6973
    1.3352 	   84.8038 	   22.0000 	   59.0000 	   32.2693
    1.5030 	   84.9478 	   22.0000 	   59.0000 	   32.8453
    1.1978 	   85.0958 	   22.0000 	   59.0000 	   33.4374
    1.3962 	   85.2413 	   22.0000 	   59.0000 	   34.0184
    1.2589 	   85.3858 	   22.0000 	   59.0000 	   34.5964
    1.3352 	   85.5345 	   22.0000 	   59.0000 	   35.1915
    1.3504 	   85.6850 	   22.0000 	   59.0000 	   35.7935
    1.3352 	   85.8325 	   22.0000 	   59.0000 	   36.3835
    1.2284 	   85.9810 	   22.0000 	   59.0000 	   36.9776
    1.0147 	   86.1283 	   22.0000 	   59.0000 	   37.5666
    1.2589 	   86.2770 	   22.0000 	   59.0000 	   38.1616
    1.0758 	   86.4243 	   22.0000 	   59.0000 	   38.7507
    1.0300 	   86.5775 	   22.0000 	   59.0000 	   39.3637
    1.1673 	   86.7275 	   22.0000 	   59.0000 	   39.9637
    1.2436 	   86.8788 	   22.0000 	   59.0000 	   40.5688
    1.2741 	   87.0298 	   22.0000 	   59.0000 	   41.1728
    1.0910 	   87.1765 	   22.0000 	   59.0000 	   41.7598
    1.0147 	   87.3258 	   22.0000 	   59.0000 	   42.3569
    0.7401 	   87.4753 	   22.0000 	   59.0000 	   42.9549
    0.9384 	   87.6250 	   22.0000 	   59.0000 	   43.5539
    1.0758 	   87.7708 	   22.0000 	   59.0000 	   44.1370
    1.1215 	   87.9225 	   22.0000 	   59.0000 	   44.7440
    0.7858 	   88.0743 	   22.0000 	   59.0000 	   45.3510
    0.9384 	   88.2235 	   22.0000 	   59.0000 	   45.9481
    0.8774 	   88.3700 	   22.0000 	   59.0000 	   46.5341
    0.6332 	   88.5188 	   22.0000 	   59.0000 	   47.1291
    0.9384 	   88.6650 	   22.0000 	   59.0000 	   47.7142
    0.8316 	   88.8153 	   22.0000 	   59.0000 	   48.3152
    0.7248 	   88.9660 	   22.0000 	   59.0000 	   48.9182
    0.7858 	   89.1198 	   22.0000 	   59.0000 	   49.5333
    0.7706 	   89.2715 	   22.0000 	   59.0000 	   50.1403
    0.8011 	   89.4223 	   22.0000 	   59.0000 	   50.7434
    0.6638 	   89.5730 	   22.0000 	   59.0000 	   51.3464
    0.6638 	   89.7238 	   22.0000 	   59.0000 	   51.9484
    0.6027 	   89.8763 	   22.0000 	   59.0000 	   52.5585
    0.6027 	   90.0250 	   22.0000 	   59.0000 	   53.1535
    0.4349 	   90.1795 	   22.0000 	   59.0000 	   53.7715
    0.5112 	   90.3313 	   22.0000 	   59.0000 	   54.3786
    0.5112 	   90.4830 	   22.0000 	   59.0000 	   54.9856
    0.1755 	   90.6388 	   22.0000 	   59.0000 	   55.6086
    0.4807 	   90.7918 	   22.0000 	   59.0000 	   56.2207
    0.4654 	   90.9380 	   22.0000 	   59.0000 	   56.8057
    0.4501 	   91.0843 	   22.0000 	   59.0000 	   57.3907
    0.3281 	   91.2293 	   22.0000 	   59.0000 	   57.9708
    0.4501 	   91.3743 	   22.0000 	   59.0000 	   58.5508
    0.2823 	   91.5198 	   22.0000 	   59.0000 	   59.1328
    0.2823 	   91.6655 	   22.0000 	   59.0000 	   59.7159
    0.1602 	   91.8115 	   23.0000 	    0.0000 	    0.2999
    0.2670 	   91.9575 	   23.0000 	    0.0000 	    0.8839
    0.2976 	   92.1043 	   23.0000 	    0.0000 	    1.4710
    0.1907 	   92.2518 	   23.0000 	    0.0000 	    2.0610
    0.1602 	   92.3975 	   23.0000 	    0.0000 	    2.6440
    0.0381 	   92.5433 	   23.0000 	    0.0000 	    3.2271
    0.1297 	   92.6895 	   23.0000 	    0.0000 	    3.8121
    0.1907 	   92.8398 	   23.0000 	    0.0000 	    4.4131
    0.1907 	   92.9853 	   23.0000 	    0.0000 	    4.9952
   -0.0229 	   93.1315 	   23.0000 	    0.0000 	    5.5802
    0.2976 	   93.2775 	   23.0000 	    0.0000 	    6.1642
    0.0992 	   93.4238 	   23.0000 	    0.0000 	    6.7493
    0.0992 	   93.5113 	   23.0000 	    0.0000 	    7.0993