File: instron/fabric_1W15L_drag30_spd15.txt
Thayer School of Engineering        Instron 4442 Mechanical Testing System
6/28/2018 4:18:35 AM

  Force (N)	Extension (mm)	Not Used	Not Used	Not Used	     Hour	    Minute	    Second
    0.2976 	    0.2565 	    4.0000 	   18.0000 	   53.3702
   -0.1144 	    0.3530 	    4.0000 	   18.0000 	   53.7563
    0.3433 	    0.4693 	    4.0000 	   18.0000 	   54.2213
    0.1297 	    0.5780 	    4.0000 	   18.0000 	   54.6563
    0.3891 	    0.6758 	    4.0000 	   18.0000 	   55.0473
    0.0992 	    0.7810 	    4.0000 	   18.0000 	   55.4684
    0.0992 	    0.8583 	    4.0000 	   18.0000 	   55.7774
    0.2060 	    0.9290 	    4.0000 	   18.0000 	   56.0604
    0.2213 	    0.9940 	    4.0000 	   18.0000 	   56.3204
    0.2060 	    1.0490 	    4.0000 	   18.0000 	   56.5404
    0.3433 	    1.1045 	    4.0000 	   18.0000 	   56.7624
    0.1907 	    1.1768 	    4.0000 	   18.0000 	   57.0515
    0.1297 	    1.2455 	    4.0000 	   18.0000 	   57.3255
    0.1907 	    1.2980 	    4.0000 	   18.0000 	   57.5355
    0.2518 	    1.3590 	    4.0000 	   18.0000 	   57.7795
    0.1450 	    1.4228 	    4.0000 	   18.0000 	   58.0345
    0.1450 	    1.4850 	    4.0000 	   18.0000 	   58.2835
    0.1450 	    1.5395 	    4.0000 	   18.0000 	   58.5015
    0.1602 	    1.6010 	    4.0000 	   18.0000 	   58.7476
    0.0992 	    1.6675 	    4.0000 	   18.0000 	   59.0136
    0.0687 	    1.7333 	    4.0000 	   18.0000 	   59.2766
    0.0839 	    1.7895 	    4.0000 	   18.0000 	   59.5016
    0.1450 	    1.8510 	    4.0000 	   18.0000 	   59.7476
    0.1450 	    1.9170 	    4.0000 	   19.0000 	    0.0116
    0.1450 	    1.9790 	    4.0000 	   19.0000 	    0.2596
    0.1450 	    2.0335 	    4.0000 	   19.0000 	    0.4777
    0.2823 	    2.0870 	    4.0000 	   19.0000 	    0.6917
    0.2213 	    2.1425 	    4.0000 	   19.0000 	    0.9137
    0.1297 	    2.2045 	    4.0000 	   19.0000 	    1.1617
    0.2060 	    2.2648 	    4.0000 	   19.0000 	    1.4027
    0.1450 	    2.3225 	    4.0000 	   19.0000 	    1.6337
    0.1907 	    2.3863 	    4.0000 	   19.0000 	    1.8887
    0.2060 	    2.4488 	    4.0000 	   19.0000 	    2.1387
    0.3128 	    2.5068 	    4.0000 	   19.0000 	    2.3708
    0.1755 	    2.5615 	    4.0000 	   19.0000 	    2.5898
    0.0992 	    2.6170 	    4.0000 	   19.0000 	    2.8118
    0.0992 	    2.6763 	    4.0000 	   19.0000 	    3.0488
    0.1297 	    2.7400 	    4.0000 	   19.0000 	    3.3038
    0.1907 	    2.7950 	    4.0000 	   19.0000 	    3.5238
   -0.0076 	    2.8588 	    4.0000 	   19.0000 	    3.7788
    0.1144 	    2.9243 	    4.0000 	   19.0000 	    4.0409
    0.1755 	    2.9875 	    4.0000 	   19.0000 	    4.2939
    0.1755 	    3.0440 	    4.0000 	   19.0000 	    4.5199
    0.2518 	    3.1103 	    4.0000 	   19.0000 	    4.7849
    0.2976 	    3.1763 	    4.0000 	   19.0000 	    5.0489
    0.1755 	    3.2350 	    4.0000 	   19.0000 	    5.2839
    0.1450 	    3.2913 	    4.0000 	   19.0000 	    5.5089
    0.2976 	    3.3553 	    4.0000 	   19.0000 	    5.7650
    0.1297 	    3.4220 	    4.0000 	   19.0000 	    6.0320
    0.1450 	    3.4873 	    4.0000 	   19.0000 	    6.2930
    0.3128 	    3.5448 	    4.0000 	   19.0000 	    6.5230
    0.1907 	    3.6018 	    4.0000 	   19.0000 	    6.7510
    0.3738 	    3.6683 	    4.0000 	   19.0000 	    7.0170
    0.1450 	    3.7338 	    4.0000 	   19.0000 	    7.2790
    0.1450 	    3.7913 	    4.0000 	   19.0000 	    7.5091
    0.1907 	    3.8545 	    4.0000 	   19.0000 	    7.7621
    0.0381 	    3.9195 	    4.0000 	   19.0000 	    8.0221
    0.0687 	    3.9845 	    4.0000 	   19.0000 	    8.2811
    0.1755 	    4.0440 	    4.0000 	   19.0000 	    8.5201
    0.1144 	    4.1065 	    4.0000 	   19.0000 	    8.7701
    0.3738 	    4.1735 	    4.0000 	   19.0000 	    9.0381
    0.2213 	    4.2400 	    4.0000 	   19.0000 	    9.3042
    0.3433 	    4.2977 	    4.0000 	   19.0000 	    9.5352
    0.1297 	    4.3610 	    4.0000 	   19.0000 	    9.7882
    0.2823 	    4.4285 	    4.0000 	   19.0000 	   10.0582
    0.1450 	    4.4940 	    4.0000 	   19.0000 	   10.3202
    0.2518 	    4.5535 	    4.0000 	   19.0000 	   10.5582
    0.2060 	    4.6188 	    4.0000 	   19.0000 	   10.8192
    0.2518 	    4.6853 	    4.0000 	   19.0000 	   11.0853
   -0.0076 	    4.7517 	    4.0000 	   19.0000 	   11.3513
    0.1450 	    4.8103 	    4.0000 	   19.0000 	   11.5853
    0.3433 	    4.8763 	    4.0000 	   19.0000 	   11.8493
    0.1602 	    4.9435 	    4.0000 	   19.0000 	   12.1183
    0.2365 	    5.0083 	    4.0000 	   19.0000 	   12.3773
   -0.0381 	    5.0678 	    4.0000 	   19.0000 	   12.6153
    0.3433 	    5.1355 	    4.0000 	   19.0000 	   12.8864
    0.1755 	    5.2038 	    4.0000 	   19.0000 	   13.1594
    0.3586 	    5.2700 	    4.0000 	   19.0000 	   13.4244
    0.1755 	    5.3345 	    4.0000 	   19.0000 	   13.6824
    0.2365 	    5.4033 	    4.0000 	   19.0000 	   13.9574
    0.2213 	    5.4755 	    4.0000 	   19.0000 	   14.2464
    0.1755 	    5.5398 	    4.0000 	   19.0000 	   14.5035
    0.4196 	    5.5990 	    4.0000 	   19.0000 	   14.7405
    0.1907 	    5.6685 	    4.0000 	   19.0000 	   15.0175
    0.3128 	    5.7298 	    4.0000 	   19.0000 	   15.2625
    0.4044 	    5.7920 	    4.0000 	   19.0000 	   15.5115
    0.1144 	    5.8533 	    4.0000 	   19.0000 	   15.7565
    0.1907 	    5.9168 	    4.0000 	   19.0000 	   16.0105
    0.2365 	    5.9785 	    4.0000 	   19.0000 	   16.2576
    0.0992 	    6.0413 	    4.0000 	   19.0000 	   16.5086
    0.2976 	    6.1078 	    4.0000 	   19.0000 	   16.7746
    0.1602 	    6.1783 	    4.0000 	   19.0000 	   17.0566
    0.2213 	    6.2480 	    4.0000 	   19.0000 	   17.3356
    0.2823 	    6.3098 	    4.0000 	   19.0000 	   17.5826
    0.2670 	    6.3715 	    4.0000 	   19.0000 	   17.8296
    0.1907 	    6.4403 	    4.0000 	   19.0000 	   18.1047
    0.1907 	    6.5065 	    4.0000 	   19.0000 	   18.3697
    0.1602 	    6.5683 	    4.0000 	   19.0000 	   18.6167
    0.2213 	    6.6383 	    4.0000 	   19.0000 	   18.8967
    0.2213 	    6.7080 	    4.0000 	   19.0000 	   19.1757
    0.2060 	    6.7755 	    4.0000 	   19.0000 	   19.4457
    0.2213 	    6.8388 	    4.0000 	   19.0000 	   19.6988
    0.2213 	    6.9083 	    4.0000 	   19.0000 	   19.9768
    0.1450 	    6.9805 	    4.0000 	   19.0000 	   20.2658
    0.0992 	    7.0470 	    4.0000 	   19.0000 	   20.5318
    0.2823 	    7.1098 	    4.0000 	   19.0000 	   20.7828
    0.2518 	    7.1808 	    4.0000 	   19.0000 	   21.0668
   -0.0076 	    7.2525 	    4.0000 	   19.0000 	   21.3538
    0.2670 	    7.3178 	    4.0000 	   19.0000 	   21.6149
    0.1602 	    7.3873 	    4.0000 	   19.0000 	   21.8929
    0.2823 	    7.4588 	    4.0000 	   19.0000 	   22.1789
    0.1907 	    7.5283 	    4.0000 	   19.0000 	   22.4569
    0.1144 	    7.5933 	    4.0000 	   19.0000 	   22.7169
    0.1602 	    7.6635 	    4.0000 	   19.0000 	   22.9979
    0.2518 	    7.7355 	    4.0000 	   19.0000 	   23.2860
    0.2823 	    7.8018 	    4.0000 	   19.0000 	   23.5510
    0.2823 	    7.8733 	    4.0000 	   19.0000 	   23.8370
    0.2365 	    7.9453 	    4.0000 	   19.0000 	   24.1250
    0.1755 	    8.0157 	    4.0000 	   19.0000 	   24.4070
    0.2518 	    8.0803 	    4.0000 	   19.0000 	   24.6650
    0.2518 	    8.1525 	    4.0000 	   19.0000 	   24.9541
    0.2976 	    8.2265 	    4.0000 	   19.0000 	   25.2501
    0.2213 	    8.2965 	    4.0000 	   19.0000 	   25.5301
    0.4044 	    8.3605 	    4.0000 	   19.0000 	   25.7861
    0.1602 	    8.4303 	    4.0000 	   19.0000 	   26.0651
    0.1755 	    8.5040 	    4.0000 	   19.0000 	   26.3601
    0.2823 	    8.5705 	    4.0000 	   19.0000 	   26.6261
    0.1450 	    8.6455 	    4.0000 	   19.0000 	   26.9262
    0.2976 	    8.7195 	    4.0000 	   19.0000 	   27.2222
    0.2213 	    8.7908 	    4.0000 	   19.0000 	   27.5072
    0.1297 	    8.8568 	    4.0000 	   19.0000 	   27.7712
    0.2670 	    8.9275 	    4.0000 	   19.0000 	   28.0542
    0.2213 	    8.9960 	    4.0000 	   19.0000 	   28.3282
    0.1144 	    9.0658 	    4.0000 	   19.0000 	   28.6073
    0.2670 	    9.1350 	    4.0000 	   19.0000 	   28.8843
   -0.1144 	    9.2028 	    4.0000 	   19.0000 	   29.1553
    0.2823 	    9.2708 	    4.0000 	   19.0000 	   29.4273
    0.2518 	    9.3375 	    4.0000 	   19.0000 	   29.6943
    0.4196 	    9.4055 	    4.0000 	   19.0000 	   29.9663
    0.2518 	    9.4743 	    4.0000 	   19.0000 	   30.2414
    0.2060 	    9.5428 	    4.0000 	   19.0000 	   30.5154
    0.1297 	    9.6105 	    4.0000 	   19.0000 	   30.7864
    0.2060 	    9.6835 	    4.0000 	   19.0000 	   31.0784
    0.1907 	    9.7598 	    4.0000 	   19.0000 	   31.3834
    0.1907 	    9.8295 	    4.0000 	   19.0000 	   31.6624
    0.3586 	    9.9013 	    4.0000 	   19.0000 	   31.9495
    0.3281 	    9.9778 	    4.0000 	   19.0000 	   32.2545
    0.4044 	   10.0503 	    4.0000 	   19.0000 	   32.5445
    0.3281 	   10.1170 	    4.0000 	   19.0000 	   32.8115
    0.2213 	   10.1925 	    4.0000 	   19.0000 	   33.1135
    0.1907 	   10.2698 	    4.0000 	   19.0000 	   33.4225
    0.3433 	   10.3390 	    4.0000 	   19.0000 	   33.6996
    0.1602 	   10.4148 	    4.0000 	   19.0000 	   34.0026
    0.3586 	   10.4910 	    4.0000 	   19.0000 	   34.3076
    0.3738 	   10.5625 	    4.0000 	   19.0000 	   34.5936
    0.2976 	   10.6345 	    4.0000 	   19.0000 	   34.8816
    0.2213 	   10.7150 	    4.0000 	   19.0000 	   35.2036
    0.2060 	   10.7905 	    4.0000 	   19.0000 	   35.5057
    0.2670 	   10.8658 	    4.0000 	   19.0000 	   35.8067
    0.2823 	   10.9443 	    4.0000 	   19.0000 	   36.1207
    0.2670 	   11.0245 	    4.0000 	   19.0000 	   36.4417
    0.2213 	   11.0955 	    4.0000 	   19.0000 	   36.7257
    0.3433 	   11.1658 	    4.0000 	   19.0000 	   37.0067
    0.2823 	   11.2390 	    4.0000 	   19.0000 	   37.2998
    0.1907 	   11.3113 	    4.0000 	   19.0000 	   37.5888
    0.2976 	   11.3865 	    4.0000 	   19.0000 	   37.8898
    0.0229 	   11.4645 	    4.0000 	   19.0000 	   38.2018
    0.3433 	   11.5353 	    4.0000 	   19.0000 	   38.4848
    0.2365 	   11.6078 	    4.0000 	   19.0000 	   38.7748
    0.1755 	   11.6858 	    4.0000 	   19.0000 	   39.0869
    0.2670 	   11.7655 	    4.0000 	   19.0000 	   39.4059
    0.4959 	   11.8390 	    4.0000 	   19.0000 	   39.6999
    0.2518 	   11.9175 	    4.0000 	   19.0000 	   40.0139
    0.1450 	   11.9963 	    4.0000 	   19.0000 	   40.3289
    0.3281 	   12.0715 	    4.0000 	   19.0000 	   40.6300
    0.1755 	   12.1463 	    4.0000 	   19.0000 	   40.9290
    0.2670 	   12.2258 	    4.0000 	   19.0000 	   41.2470
    0.3433 	   12.3023 	    4.0000 	   19.0000 	   41.5530
    0.2365 	   12.3798 	    4.0000 	   19.0000 	   41.8630
    0.1907 	   12.4575 	    4.0000 	   19.0000 	   42.1740
    0.2823 	   12.5385 	    4.0000 	   19.0000 	   42.4981
    0.1907 	   12.6115 	    4.0000 	   19.0000 	   42.7901
    0.2823 	   12.6885 	    4.0000 	   19.0000 	   43.0981
    0.2823 	   12.7670 	    4.0000 	   19.0000 	   43.4121
    0.3586 	   12.8425 	    4.0000 	   19.0000 	   43.7141
    0.2518 	   12.9235 	    4.0000 	   19.0000 	   44.0381
    0.4349 	   12.9990 	    4.0000 	   19.0000 	   44.3402
    0.1907 	   13.0763 	    4.0000 	   19.0000 	   44.6492
    0.4654 	   13.1533 	    4.0000 	   19.0000 	   44.9572
    0.4349 	   13.2360 	    4.0000 	   19.0000 	   45.2882
    0.0534 	   13.3125 	    4.0000 	   19.0000 	   45.5942
    0.3433 	   13.3853 	    4.0000 	   19.0000 	   45.8853
    0.2823 	   13.4628 	    4.0000 	   19.0000 	   46.1953
    0.3738 	   13.5428 	    4.0000 	   19.0000 	   46.5153
    0.2365 	   13.6150 	    4.0000 	   19.0000 	   46.8043
    0.2670 	   13.6965 	    4.0000 	   19.0000 	   47.1303
    0.2823 	   13.7753 	    4.0000 	   19.0000 	   47.4453
    0.3738 	   13.8528 	    4.0000 	   19.0000 	   47.7554
    0.3433 	   13.9323 	    4.0000 	   19.0000 	   48.0734
    0.3891 	   14.0083 	    4.0000 	   19.0000 	   48.3774
    0.4349 	   14.0843 	    4.0000 	   19.0000 	   48.6814
    0.3891 	   14.1645 	    4.0000 	   19.0000 	   49.0024
    0.3738 	   14.2485 	    4.0000 	   19.0000 	   49.3384
    0.2976 	   14.3280 	    4.0000 	   19.0000 	   49.6565
    0.1755 	   14.4028 	    4.0000 	   19.0000 	   49.9545
    0.3281 	   14.4798 	    4.0000 	   19.0000 	   50.2625
    0.0992 	   14.5615 	    4.0000 	   19.0000 	   50.5895
    0.2670 	   14.6413 	    4.0000 	   19.0000 	   50.9085
    0.3281 	   14.7238 	    4.0000 	   19.0000 	   51.2386
    0.4196 	   14.8063 	    4.0000 	   19.0000 	   51.5686
    0.3433 	   14.8795 	    4.0000 	   19.0000 	   51.8616
    0.2823 	   14.9583 	    4.0000 	   19.0000 	   52.1766
    0.2976 	   15.0398 	    4.0000 	   19.0000 	   52.5026
    0.1450 	   15.1173 	    4.0000 	   19.0000 	   52.8126
    0.4196 	   15.2000 	    4.0000 	   19.0000 	   53.1437
    0.2670 	   15.2833 	    4.0000 	   19.0000 	   53.4767
    0.2823 	   15.3585 	    4.0000 	   19.0000 	   53.7777
    0.2060 	   15.4345 	    4.0000 	   19.0000 	   54.0817
    0.5264 	   15.5110 	    4.0000 	   19.0000 	   54.3877
    0.4196 	   15.5888 	    4.0000 	   19.0000 	   54.6988
    0.3586 	   15.6685 	    4.0000 	   19.0000 	   55.0168
    0.4044 	   15.7535 	    4.0000 	   19.0000 	   55.3578
    0.2976 	   15.8340 	    4.0000 	   19.0000 	   55.6798
    0.4349 	   15.9130 	    4.0000 	   19.0000 	   55.9958
    0.1907 	   15.9970 	    4.0000 	   19.0000 	   56.3318
    0.4349 	   16.0783 	    4.0000 	   19.0000 	   56.6569
    0.2518 	   16.1583 	    4.0000 	   19.0000 	   56.9769
    0.2213 	   16.2420 	    4.0000 	   19.0000 	   57.3119
    0.0381 	   16.3253 	    4.0000 	   19.0000 	   57.6449
    0.3281 	   16.4078 	    4.0000 	   19.0000 	   57.9749
    0.2060 	   16.4920 	    4.0000 	   19.0000 	   58.3120
    0.4807 	   16.5760 	    4.0000 	   19.0000 	   58.6480
    0.4501 	   16.6575 	    4.0000 	   19.0000 	   58.9740
    0.3128 	   16.7440 	    4.0000 	   19.0000 	   59.3200
    0.4959 	   16.8230 	    4.0000 	   19.0000 	   59.6360
    0.4807 	   16.9020 	    4.0000 	   19.0000 	   59.9521
    0.2976 	   16.9888 	    4.0000 	   20.0000 	    0.2991
    0.4044 	   17.0735 	    4.0000 	   20.0000 	    0.6381
    0.2365 	   17.1535 	    4.0000 	   20.0000 	    0.9581
    0.3738 	   17.2400 	    4.0000 	   20.0000 	    1.3041
    0.1144 	   17.3270 	    4.0000 	   20.0000 	    1.6522
    0.2823 	   17.4095 	    4.0000 	   20.0000 	    1.9822
    0.0992 	   17.4918 	    4.0000 	   20.0000 	    2.3112
    0.3738 	   17.5723 	    4.0000 	   20.0000 	    2.6332
    0.3281 	   17.6525 	    4.0000 	   20.0000 	    2.9542
    0.3586 	   17.7370 	    4.0000 	   20.0000 	    3.2922
    0.2976 	   17.8173 	    4.0000 	   20.0000 	    3.6133
    0.3891 	   17.8985 	    4.0000 	   20.0000 	    3.9383
    0.2823 	   17.9780 	    4.0000 	   20.0000 	    4.2563
    0.4044 	   18.0588 	    4.0000 	   20.0000 	    4.5793
    0.2670 	   18.1398 	    4.0000 	   20.0000 	    4.9033
    0.2670 	   18.2233 	    4.0000 	   20.0000 	    5.2374
    0.2670 	   18.3068 	    4.0000 	   20.0000 	    5.5714
    0.3891 	   18.3893 	    4.0000 	   20.0000 	    5.9014
    0.3281 	   18.4780 	    4.0000 	   20.0000 	    6.2564
    0.4501 	   18.5600 	    4.0000 	   20.0000 	    6.5844
    0.2518 	   18.6425 	    4.0000 	   20.0000 	    6.9145
    0.4044 	   18.7273 	    4.0000 	   20.0000 	    7.2525
    0.4196 	   18.8095 	    4.0000 	   20.0000 	    7.5815
    0.2976 	   18.8900 	    4.0000 	   20.0000 	    7.9035
    0.2976 	   18.9725 	    4.0000 	   20.0000 	    8.2335
    0.2976 	   19.0548 	    4.0000 	   20.0000 	    8.5625
   -0.0076 	   19.1358 	    4.0000 	   20.0000 	    8.8866
    0.2823 	   19.2230 	    4.0000 	   20.0000 	    9.2356
    0.2365 	   19.3118 	    4.0000 	   20.0000 	    9.5906
    0.5417 	   19.3940 	    4.0000 	   20.0000 	    9.9196
    0.4654 	   19.4813 	    4.0000 	   20.0000 	   10.2686
    0.3891 	   19.5663 	    4.0000 	   20.0000 	   10.6087
    0.2976 	   19.6508 	    4.0000 	   20.0000 	   10.9467
    0.4196 	   19.7403 	    4.0000 	   20.0000 	   11.3047
    0.2976 	   19.8300 	    4.0000 	   20.0000 	   11.6637
    0.2060 	   19.9143 	    4.0000 	   20.0000 	   12.0007
    0.0992 	   20.0035 	    4.0000 	   20.0000 	   12.3578
    0.4349 	   20.0940 	    4.0000 	   20.0000 	   12.7198
    0.4044 	   20.1810 	    4.0000 	   20.0000 	   13.0678
    0.3586 	   20.2670 	    4.0000 	   20.0000 	   13.4118
    0.3891 	   20.3535 	    4.0000 	   20.0000 	   13.7578
    0.2976 	   20.4380 	    4.0000 	   20.0000 	   14.0959
    0.3891 	   20.5248 	    4.0000 	   20.0000 	   14.4429
    0.3891 	   20.6098 	    4.0000 	   20.0000 	   14.7829
    0.4501 	   20.6935 	    4.0000 	   20.0000 	   15.1179
    0.4349 	   20.7783 	    4.0000 	   20.0000 	   15.4569
    0.2518 	   20.8625 	    4.0000 	   20.0000 	   15.7940
    0.2670 	   20.9480 	    4.0000 	   20.0000 	   16.1360
    0.3738 	   21.0348 	    4.0000 	   20.0000 	   16.4830
    0.2670 	   21.1198 	    4.0000 	   20.0000 	   16.8230
    0.2823 	   21.2073 	    4.0000 	   20.0000 	   17.1730
    0.3738 	   21.2905 	    4.0000 	   20.0000 	   17.5061
    0.4959 	   21.3745 	    4.0000 	   20.0000 	   17.8421
    0.3586 	   21.4640 	    4.0000 	   20.0000 	   18.2001
    0.3586 	   21.5513 	    4.0000 	   20.0000 	   18.5491
    0.2976 	   21.6383 	    4.0000 	   20.0000 	   18.8971
    0.4349 	   21.7253 	    4.0000 	   20.0000 	   19.2452
    0.2976 	   21.8103 	    4.0000 	   20.0000 	   19.5852
    0.3433 	   21.8948 	    4.0000 	   20.0000 	   19.9232
    0.3586 	   21.9823 	    4.0000 	   20.0000 	   20.2732
    0.3738 	   22.0708 	    4.0000 	   20.0000 	   20.6272
    0.3738 	   22.1550 	    4.0000 	   20.0000 	   20.9643
    0.2670 	   22.2460 	    4.0000 	   20.0000 	   21.3283
    0.2365 	   22.3363 	    4.0000 	   20.0000 	   21.6893
    0.3738 	   22.4238 	    4.0000 	   20.0000 	   22.0393
    0.5264 	   22.5105 	    4.0000 	   20.0000 	   22.3863
    0.1297 	   22.5955 	    4.0000 	   20.0000 	   22.7264
    0.2976 	   22.6808 	    4.0000 	   20.0000 	   23.0664
    0.3281 	   22.7648 	    4.0000 	   20.0000 	   23.4034
    0.3433 	   22.8490 	    4.0000 	   20.0000 	   23.7404
    0.4501 	   22.9333 	    4.0000 	   20.0000 	   24.0774
    0.4349 	   23.0173 	    4.0000 	   20.0000 	   24.4135
    0.3738 	   23.1020 	    4.0000 	   20.0000 	   24.7515
    0.2670 	   23.1855 	    4.0000 	   20.0000 	   25.0855
    0.5112 	   23.2695 	    4.0000 	   20.0000 	   25.4215
    0.1602 	   23.3538 	    4.0000 	   20.0000 	   25.7585
    0.4349 	   23.4385 	    4.0000 	   20.0000 	   26.0976
    0.4196 	   23.5300 	    4.0000 	   20.0000 	   26.4636
    0.4196 	   23.6160 	    4.0000 	   20.0000 	   26.8076
    0.3738 	   23.7030 	    4.0000 	   20.0000 	   27.1556
    0.3738 	   23.7873 	    4.0000 	   20.0000 	   27.4926
    0.3586 	   23.8720 	    4.0000 	   20.0000 	   27.8316
    0.4044 	   23.9565 	    4.0000 	   20.0000 	   28.1697
    0.4196 	   24.0425 	    4.0000 	   20.0000 	   28.5137
    0.3433 	   24.1288 	    4.0000 	   20.0000 	   28.8587
    0.3128 	   24.2138 	    4.0000 	   20.0000 	   29.1987
    0.5112 	   24.3003 	    4.0000 	   20.0000 	   29.5447
    0.4349 	   24.3905 	    4.0000 	   20.0000 	   29.9058
    0.3738 	   24.4808 	    4.0000 	   20.0000 	   30.2668
    0.5112 	   24.5733 	    4.0000 	   20.0000 	   30.6368
    0.2670 	   24.6613 	    4.0000 	   20.0000 	   30.9888
    0.5570 	   24.7490 	    4.0000 	   20.0000 	   31.3399
    0.3586 	   24.8370 	    4.0000 	   20.0000 	   31.6919
    0.3738 	   24.9278 	    4.0000 	   20.0000 	   32.0549
    0.2518 	   25.0200 	    4.0000 	   20.0000 	   32.4239
    0.4044 	   25.1103 	    4.0000 	   20.0000 	   32.7849
    0.4196 	   25.1970 	    4.0000 	   20.0000 	   33.1320
    0.3433 	   25.2875 	    4.0000 	   20.0000 	   33.4940
    0.5112 	   25.3775 	    4.0000 	   20.0000 	   33.8540
    0.4349 	   25.4665 	    4.0000 	   20.0000 	   34.2100
    0.3891 	   25.5620 	    4.0000 	   20.0000 	   34.5910
    0.2976 	   25.6523 	    4.0000 	   20.0000 	   34.9531
    0.3586 	   25.7410 	    4.0000 	   20.0000 	   35.3081
    0.3738 	   25.8293 	    4.0000 	   20.0000 	   35.6611
    0.3128 	   25.9205 	    4.0000 	   20.0000 	   36.0261
    0.5264 	   26.0125 	    4.0000 	   20.0000 	   36.3941
    0.4654 	   26.1088 	    4.0000 	   20.0000 	   36.7792
    0.4349 	   26.1955 	    4.0000 	   20.0000 	   37.1262
    0.3433 	   26.2883 	    4.0000 	   20.0000 	   37.4972
    0.4959 	   26.3785 	    4.0000 	   20.0000 	   37.8582
    0.4196 	   26.4663 	    4.0000 	   20.0000 	   38.2092
    0.4654 	   26.5580 	    4.0000 	   20.0000 	   38.5763
    0.4501 	   26.6468 	    4.0000 	   20.0000 	   38.9313
    0.5722 	   26.7370 	    4.0000 	   20.0000 	   39.2923
    0.4196 	   26.8263 	    4.0000 	   20.0000 	   39.6493
    0.3738 	   26.9155 	    4.0000 	   20.0000 	   40.0063
    0.0534 	   27.0038 	    4.0000 	   20.0000 	   40.3594
    0.4501 	   27.0938 	    4.0000 	   20.0000 	   40.7194
    0.3433 	   27.1818 	    4.0000 	   20.0000 	   41.0714
    0.4044 	   27.2723 	    4.0000 	   20.0000 	   41.4334
    0.4501 	   27.3618 	    4.0000 	   20.0000 	   41.7915
    0.4959 	   27.4500 	    4.0000 	   20.0000 	   42.1445
    0.4654 	   27.5383 	    4.0000 	   20.0000 	   42.4965
    0.5112 	   27.6278 	    4.0000 	   20.0000 	   42.8545
    0.4807 	   27.7160 	    4.0000 	   20.0000 	   43.2075
    0.4196 	   27.8048 	    4.0000 	   20.0000 	   43.5625
    0.5264 	   27.8965 	    4.0000 	   20.0000 	   43.9296
    0.5570 	   27.9858 	    4.0000 	   20.0000 	   44.2866
    0.6027 	   28.0790 	    4.0000 	   20.0000 	   44.6596
    0.4654 	   28.1715 	    4.0000 	   20.0000 	   45.0296
    0.3738 	   28.2640 	    4.0000 	   20.0000 	   45.3997
    0.4196 	   28.3623 	    4.0000 	   20.0000 	   45.7927
    0.4349 	   28.4530 	    4.0000 	   20.0000 	   46.1557
    0.5875 	   28.5503 	    4.0000 	   20.0000 	   46.5447
    0.3433 	   28.6478 	    4.0000 	   20.0000 	   46.9347
    0.4959 	   28.7368 	    4.0000 	   20.0000 	   47.2908
    0.3128 	   28.8325 	    4.0000 	   20.0000 	   47.6738
    0.6027 	   28.9255 	    4.0000 	   20.0000 	   48.0458
    0.6332 	   29.0158 	    4.0000 	   20.0000 	   48.4068
    0.3891 	   29.1068 	    4.0000 	   20.0000 	   48.7708
    0.4501 	   29.1973 	    4.0000 	   20.0000 	   49.1329
    0.4959 	   29.2890 	    4.0000 	   20.0000 	   49.4999
    0.4959 	   29.3803 	    4.0000 	   20.0000 	   49.8649
    0.4196 	   29.4720 	    4.0000 	   20.0000 	   50.2319
    0.3738 	   29.5690 	    4.0000 	   20.0000 	   50.6200
    0.5722 	   29.6630 	    4.0000 	   20.0000 	   50.9960
    0.4959 	   29.7558 	    4.0000 	   20.0000 	   51.3670
    0.5264 	   29.8480 	    4.0000 	   20.0000 	   51.7360
    0.4349 	   29.9425 	    4.0000 	   20.0000 	   52.1140
    0.4044 	   30.0408 	    4.0000 	   20.0000 	   52.5071
    0.3586 	   30.1343 	    4.0000 	   20.0000 	   52.8811
    0.2213 	   30.2275 	    4.0000 	   20.0000 	   53.2541
    0.4196 	   30.3215 	    4.0000 	   20.0000 	   53.6301
    0.4654 	   30.4165 	    4.0000 	   20.0000 	   54.0101
    0.4501 	   30.5068 	    4.0000 	   20.0000 	   54.3712
    0.4959 	   30.5985 	    4.0000 	   20.0000 	   54.7382
    0.4196 	   30.6900 	    4.0000 	   20.0000 	   55.1042
    0.5417 	   30.7838 	    4.0000 	   20.0000 	   55.4792
    0.4196 	   30.8833 	    4.0000 	   20.0000 	   55.8773
    0.3433 	   30.9750 	    4.0000 	   20.0000 	   56.2443
    0.5570 	   31.0683 	    4.0000 	   20.0000 	   56.6173
    0.4044 	   31.1668 	    4.0000 	   20.0000 	   57.0113
    0.5112 	   31.2605 	    4.0000 	   20.0000 	   57.3863
    0.4654 	   31.3593 	    4.0000 	   20.0000 	   57.7814
    0.4044 	   31.4528 	    4.0000 	   20.0000 	   58.1554
    0.5722 	   31.5503 	    4.0000 	   20.0000 	   58.5454
    0.3738 	   31.6468 	    4.0000 	   20.0000 	   58.9314
    0.5264 	   31.7423 	    4.0000 	   20.0000 	   59.3134
    0.5112 	   31.8378 	    4.0000 	   20.0000 	   59.6945
    0.5570 	   31.9365 	    4.0000 	   21.0000 	    0.0895
    0.5722 	   32.0308 	    4.0000 	   21.0000 	    0.4665
    0.4196 	   32.1305 	    4.0000 	   21.0000 	    0.8655
    0.3738 	   32.2245 	    4.0000 	   21.0000 	    1.2416
    0.6027 	   32.3248 	    4.0000 	   21.0000 	    1.6426
    0.4654 	   32.4210 	    4.0000 	   21.0000 	    2.0276
    0.4044 	   32.5143 	    4.0000 	   21.0000 	    2.4006
    0.1907 	   32.6120 	    4.0000 	   21.0000 	    2.7916
    0.6943 	   32.7090 	    4.0000 	   21.0000 	    3.1797
    0.4044 	   32.8040 	    4.0000 	   21.0000 	    3.5597
    0.1602 	   32.9048 	    4.0000 	   21.0000 	    3.9627
    0.3891 	   32.9988 	    4.0000 	   21.0000 	    4.3387
    0.5875 	   33.0918 	    4.0000 	   21.0000 	    4.7108
    0.5264 	   33.1853 	    4.0000 	   21.0000 	    5.0848
    0.4654 	   33.2803 	    4.0000 	   21.0000 	    5.4648
    0.5417 	   33.3805 	    4.0000 	   21.0000 	    5.8658
    0.5112 	   33.4757 	    4.0000 	   21.0000 	    6.2468
    0.4501 	   33.5715 	    4.0000 	   21.0000 	    6.6299
    0.3281 	   33.6680 	    4.0000 	   21.0000 	    7.0159
    0.4349 	   33.7660 	    4.0000 	   21.0000 	    7.4079
    0.5570 	   33.8645 	    4.0000 	   21.0000 	    7.8019
    0.5417 	   33.9625 	    4.0000 	   21.0000 	    8.1940
    0.4501 	   34.0625 	    4.0000 	   21.0000 	    8.5940
    0.5570 	   34.1625 	    4.0000 	   21.0000 	    8.9940
    0.4044 	   34.2568 	    4.0000 	   21.0000 	    9.3710
    0.3891 	   34.3533 	    4.0000 	   21.0000 	    9.7570
    0.5875 	   34.4548 	    4.0000 	   21.0000 	   10.1631
    0.3281 	   34.5545 	    4.0000 	   21.0000 	   10.5621
    0.4959 	   34.6545 	    4.0000 	   21.0000 	   10.9621
    0.5112 	   34.7550 	    4.0000 	   21.0000 	   11.3631
    0.4044 	   34.8533 	    4.0000 	   21.0000 	   11.7572
    0.4501 	   34.9518 	    4.0000 	   21.0000 	   12.1512
    0.4044 	   35.0515 	    4.0000 	   21.0000 	   12.5502
    0.4044 	   35.1460 	    4.0000 	   21.0000 	   12.9282
    0.2518 	   35.2433 	    4.0000 	   21.0000 	   13.3173
    0.3586 	   35.3413 	    4.0000 	   21.0000 	   13.7093
    0.5570 	   35.4430 	    4.0000 	   21.0000 	   14.1163
    0.6027 	   35.5413 	    4.0000 	   21.0000 	   14.5093
    0.3128 	   35.6413 	    4.0000 	   21.0000 	   14.9093
    0.3891 	   35.7385 	    4.0000 	   21.0000 	   15.2984
    0.5417 	   35.8375 	    4.0000 	   21.0000 	   15.6944
    0.4959 	   35.9398 	    4.0000 	   21.0000 	   16.1034
    0.5417 	   36.0363 	    4.0000 	   21.0000 	   16.4894
    0.2823 	   36.1333 	    4.0000 	   21.0000 	   16.8775
    0.4044 	   36.2313 	    4.0000 	   21.0000 	   17.2685
    0.5417 	   36.3335 	    4.0000 	   21.0000 	   17.6775
    0.4501 	   36.4388 	    4.0000 	   21.0000 	   18.0985
    0.5264 	   36.5403 	    4.0000 	   21.0000 	   18.5045
    0.4044 	   36.6370 	    4.0000 	   21.0000 	   18.8916
    0.3128 	   36.7370 	    4.0000 	   21.0000 	   19.2916
    0.3891 	   36.8343 	    4.0000 	   21.0000 	   19.6806
    0.3586 	   36.9320 	    4.0000 	   21.0000 	   20.0716
    0.5875 	   37.0335 	    4.0000 	   21.0000 	   20.4777
    0.3891 	   37.1360 	    4.0000 	   21.0000 	   20.8877
    0.4196 	   37.2355 	    4.0000 	   21.0000 	   21.2857
    0.5264 	   37.3388 	    4.0000 	   21.0000 	   21.6987
    0.4196 	   37.4370 	    4.0000 	   21.0000 	   22.0918
    0.4959 	   37.5403 	    4.0000 	   21.0000 	   22.5048
    0.4654 	   37.6480 	    4.0000 	   21.0000 	   22.9358
    0.4044 	   37.7518 	    4.0000 	   21.0000 	   23.3508
    0.4959 	   37.8498 	    4.0000 	   21.0000 	   23.7428
    0.4807 	   37.9510 	    4.0000 	   21.0000 	   24.1479
    0.4654 	   38.0530 	    4.0000 	   21.0000 	   24.5559
    0.3281 	   38.1590 	    4.0000 	   21.0000 	   24.9799
    0.4959 	   38.2575 	    4.0000 	   21.0000 	   25.3739
    0.4349 	   38.3603 	    4.0000 	   21.0000 	   25.7850
    0.4196 	   38.4590 	    4.0000 	   21.0000 	   26.1800
    0.5417 	   38.5583 	    4.0000 	   21.0000 	   26.5770
    0.3586 	   38.6565 	    4.0000 	   21.0000 	   26.9700
    0.3128 	   38.7560 	    4.0000 	   21.0000 	   27.3681
    0.4196 	   38.8580 	    4.0000 	   21.0000 	   27.7761
    0.5264 	   38.9600 	    4.0000 	   21.0000 	   28.1831
    0.3891 	   39.0585 	    4.0000 	   21.0000 	   28.5781
    0.4501 	   39.1590 	    4.0000 	   21.0000 	   28.9801
    0.5570 	   39.2625 	    4.0000 	   21.0000 	   29.3942
    0.4349 	   39.3613 	    4.0000 	   21.0000 	   29.7892
    0.3433 	   39.4620 	    4.0000 	   21.0000 	   30.1922
    0.4044 	   39.5620 	    4.0000 	   21.0000 	   30.5922
    0.3891 	   39.6600 	    4.0000 	   21.0000 	   30.9843
    0.5722 	   39.7588 	    4.0000 	   21.0000 	   31.3793
    0.3433 	   39.8590 	    4.0000 	   21.0000 	   31.7803
    0.5570 	   39.9613 	    4.0000 	   21.0000 	   32.1893
    0.6332 	   40.0615 	    4.0000 	   21.0000 	   32.5904
    0.4501 	   40.1650 	    4.0000 	   21.0000 	   33.0044
    0.4654 	   40.2653 	    4.0000 	   21.0000 	   33.4054
    0.4196 	   40.3670 	    4.0000 	   21.0000 	   33.8124
    0.4349 	   40.4678 	    4.0000 	   21.0000 	   34.2154
    0.3738 	   40.5705 	    4.0000 	   21.0000 	   34.6265
    0.4654 	   40.6720 	    4.0000 	   21.0000 	   35.0315
    0.5264 	   40.7728 	    4.0000 	   21.0000 	   35.4335
    0.3128 	   40.8758 	    4.0000 	   21.0000 	   35.8465
    0.5264 	   40.9775 	    4.0000 	   21.0000 	   36.2536
    0.3738 	   41.0828 	    4.0000 	   21.0000 	   36.6746
    0.4349 	   41.1923 	    4.0000 	   21.0000 	   37.1126
    0.4196 	   41.2970 	    4.0000 	   21.0000 	   37.5316
    0.6332 	   41.4063 	    4.0000 	   21.0000 	   37.9687
    0.4807 	   41.5103 	    4.0000 	   21.0000 	   38.3847
    0.4807 	   41.6165 	    4.0000 	   21.0000 	   38.8097
    0.4959 	   41.7225 	    4.0000 	   21.0000 	   39.2337
    0.5417 	   41.8265 	    4.0000 	   21.0000 	   39.6498
    0.4501 	   41.9320 	    4.0000 	   21.0000 	   40.0718
    0.2976 	   42.0368 	    4.0000 	   21.0000 	   40.4908
    0.4807 	   42.1455 	    4.0000 	   21.0000 	   40.9258
    0.3738 	   42.2498 	    4.0000 	   21.0000 	   41.3429
    0.3891 	   42.3533 	    4.0000 	   21.0000 	   41.7569
    0.3738 	   42.4555 	    4.0000 	   21.0000 	   42.1659
    0.4044 	   42.5590 	    4.0000 	   21.0000 	   42.5799
    0.6027 	   42.6630 	    4.0000 	   21.0000 	   42.9959
    0.4349 	   42.7668 	    4.0000 	   21.0000 	   43.4110
    0.4501 	   42.8755 	    4.0000 	   21.0000 	   43.8450
    0.5264 	   42.9865 	    4.0000 	   21.0000 	   44.2900
    0.3281 	   43.0908 	    4.0000 	   21.0000 	   44.7070
    0.3586 	   43.1988 	    4.0000 	   21.0000 	   45.1391
    0.4654 	   43.3040 	    4.0000 	   21.0000 	   45.5601
    0.3738 	   43.4153 	    4.0000 	   21.0000 	   46.0041
    0.5722 	   43.5200 	    4.0000 	   21.0000 	   46.4241
    0.3738 	   43.6270 	    4.0000 	   21.0000 	   46.8522
    0.4654 	   43.7353 	    4.0000 	   21.0000 	   47.2852
    0.4501 	   43.8435 	    4.0000 	   21.0000 	   47.7182
    0.4501 	   43.9530 	    4.0000 	   21.0000 	   48.1562
    0.3738 	   44.0608 	    4.0000 	   21.0000 	   48.5873
    0.5722 	   44.1695 	    4.0000 	   21.0000 	   49.0223
    0.5417 	   44.2750 	    4.0000 	   21.0000 	   49.4443
    0.3128 	   44.3815 	    4.0000 	   21.0000 	   49.8703
    0.6027 	   44.4873 	    4.0000 	   21.0000 	   50.2934
    0.4654 	   44.5900 	    4.0000 	   21.0000 	   50.7044
    0.4959 	   44.6993 	    4.0000 	   21.0000 	   51.1414
    0.5264 	   44.8050 	    4.0000 	   21.0000 	   51.5644
    0.4654 	   44.9090 	    4.0000 	   21.0000 	   51.9805
    0.3281 	   45.0140 	    4.0000 	   21.0000 	   52.3995
    0.4959 	   45.1220 	    4.0000 	   21.0000 	   52.8315
    0.5264 	   45.2290 	    4.0000 	   21.0000 	   53.2595
    0.5722 	   45.3383 	    4.0000 	   21.0000 	   53.6966
    0.4044 	   45.4468 	    4.0000 	   21.0000 	   54.1306
    0.4044 	   45.5590 	    4.0000 	   21.0000 	   54.5796
    0.4349 	   45.6653 	    4.0000 	   21.0000 	   55.0046
    0.4349 	   45.7738 	    4.0000 	   21.0000 	   55.4387
    0.4044 	   45.8823 	    4.0000 	   21.0000 	   55.8727
    0.4044 	   45.9905 	    4.0000 	   21.0000 	   56.3057
    0.4959 	   46.1013 	    4.0000 	   21.0000 	   56.7487
    0.5264 	   46.2093 	    4.0000 	   21.0000 	   57.1808
    0.5112 	   46.3160 	    4.0000 	   21.0000 	   57.6078
    0.4044 	   46.4258 	    4.0000 	   21.0000 	   58.0468
    0.3738 	   46.5353 	    4.0000 	   21.0000 	   58.4848
    0.4044 	   46.6430 	    4.0000 	   21.0000 	   58.9159
    0.4349 	   46.7518 	    4.0000 	   21.0000 	   59.3509
    0.3586 	   46.8593 	    4.0000 	   21.0000 	   59.7809
    0.2518 	   46.9675 	    4.0000 	   22.0000 	    0.2139
    0.5417 	   47.0808 	    4.0000 	   22.0000 	    0.6670
    0.4654 	   47.1918 	    4.0000 	   22.0000 	    1.1110
    0.3586 	   47.2993 	    4.0000 	   22.0000 	    1.5410
    0.3891 	   47.4040 	    4.0000 	   22.0000 	    1.9600
    0.5570 	   47.5113 	    4.0000 	   22.0000 	    2.3891
    0.2823 	   47.6163 	    4.0000 	   22.0000 	    2.8091
    0.4044 	   47.7268 	    4.0000 	   22.0000 	    3.2511
    0.5417 	   47.8328 	    4.0000 	   22.0000 	    3.6751
    0.3586 	   47.9373 	    4.0000 	   22.0000 	    4.0932
    0.4044 	   48.0438 	    4.0000 	   22.0000 	    4.5192
    0.5570 	   48.1490 	    4.0000 	   22.0000 	    4.9402
    0.4196 	   48.2565 	    4.0000 	   22.0000 	    5.3702
    0.4959 	   48.3663 	    4.0000 	   22.0000 	    5.8093
    0.5112 	   48.4723 	    4.0000 	   22.0000 	    6.2333
    0.6485 	   48.5823 	    4.0000 	   22.0000 	    6.6733
    0.1144 	   48.6935 	    4.0000 	   22.0000 	    7.1183
    0.4349 	   48.8035 	    4.0000 	   22.0000 	    7.5584
    0.1450 	   48.9098 	    4.0000 	   22.0000 	    7.9834
    0.5570 	   49.0220 	    4.0000 	   22.0000 	    8.4324
    0.5722 	   49.1323 	    4.0000 	   22.0000 	    8.8734
    0.4654 	   49.2388 	    4.0000 	   22.0000 	    9.2995
    0.3738 	   49.3465 	    4.0000 	   22.0000 	    9.7295
    0.4959 	   49.4540 	    4.0000 	   22.0000 	   10.1595
    0.4807 	   49.5635 	    4.0000 	   22.0000 	   10.5975
    0.4196 	   49.6798 	    4.0000 	   22.0000 	   11.0626
    0.3281 	   49.7898 	    4.0000 	   22.0000 	   11.5026
    0.3738 	   49.8983 	    4.0000 	   22.0000 	   11.9366
    0.3891 	   50.0060 	    4.0000 	   22.0000 	   12.3676
    0.4196 	   50.1193 	    4.0000 	   22.0000 	   12.8207
    0.3586 	   50.2265 	    4.0000 	   22.0000 	   13.2497
    0.4196 	   50.3363 	    4.0000 	   22.0000 	   13.6887
    0.4959 	   50.4498 	    4.0000 	   22.0000 	   14.1427
    0.3891 	   50.5613 	    4.0000 	   22.0000 	   14.5888
    0.3128 	   50.6760 	    4.0000 	   22.0000 	   15.0478
    0.4196 	   50.7903 	    4.0000 	   22.0000 	   15.5048
    0.2670 	   50.8993 	    4.0000 	   22.0000 	   15.9408
    0.5570 	   51.0098 	    4.0000 	   22.0000 	   16.3829
    0.4501 	   51.1228 	    4.0000 	   22.0000 	   16.8349
    0.4044 	   51.2355 	    4.0000 	   22.0000 	   17.2859
    0.4349 	   51.3465 	    4.0000 	   22.0000 	   17.7299
    0.3281 	   51.4565 	    4.0000 	   22.0000 	   18.1700
    0.4196 	   51.5675 	    4.0000 	   22.0000 	   18.6140
    0.3891 	   51.6783 	    4.0000 	   22.0000 	   19.0570
    0.4044 	   51.7918 	    4.0000 	   22.0000 	   19.5110
    0.2518 	   51.9028 	    4.0000 	   22.0000 	   19.9551
    0.4807 	   52.0150 	    4.0000 	   22.0000 	   20.4041
    0.3128 	   52.1250 	    4.0000 	   22.0000 	   20.8441
    0.4501 	   52.2400 	    4.0000 	   22.0000 	   21.3041
    0.3586 	   52.3528 	    4.0000 	   22.0000 	   21.7552
    0.3281 	   52.4680 	    4.0000 	   22.0000 	   22.2162
    0.3281 	   52.5773 	    4.0000 	   22.0000 	   22.6532
    0.3128 	   52.6925 	    4.0000 	   22.0000 	   23.1142
    0.3128 	   52.8055 	    4.0000 	   22.0000 	   23.5663
    0.3433 	   52.9163 	    4.0000 	   22.0000 	   24.0093
    0.1755 	   53.0285 	    4.0000 	   22.0000 	   24.4583
    0.2823 	   53.1413 	    4.0000 	   22.0000 	   24.9093
    0.3891 	   53.2563 	    4.0000 	   22.0000 	   25.3694
    0.3738 	   53.3673 	    4.0000 	   22.0000 	   25.8134
    0.3738 	   53.4790 	    4.0000 	   22.0000 	   26.2604
    0.3586 	   53.5923 	    4.0000 	   22.0000 	   26.7134
    0.2823 	   53.7088 	    4.0000 	   22.0000 	   27.1785
    0.2518 	   53.8210 	    4.0000 	   22.0000 	   27.6275
    0.3281 	   53.9365 	    4.0000 	   22.0000 	   28.0895
    0.3891 	   54.0538 	    4.0000 	   22.0000 	   28.5586
    0.3738 	   54.1670 	    4.0000 	   22.0000 	   29.0116
    0.2976 	   54.2815 	    4.0000 	   22.0000 	   29.4696
    0.0839 	   54.3940 	    4.0000 	   22.0000 	   29.9196
    0.2060 	   54.5055 	    4.0000 	   22.0000 	   30.3657
    0.4349 	   54.6200 	    4.0000 	   22.0000 	   30.8237
    0.2976 	   54.7315 	    4.0000 	   22.0000 	   31.2697
    0.4044 	   54.8440 	    4.0000 	   22.0000 	   31.7197
    0.2518 	   54.9545 	    4.0000 	   22.0000 	   32.1618
    0.2823 	   55.0665 	    4.0000 	   22.0000 	   32.6098
    0.3738 	   55.1835 	    4.0000 	   22.0000 	   33.0778
    0.3738 	   55.2975 	    4.0000 	   22.0000 	   33.5338
    0.2213 	   55.4110 	    4.0000 	   22.0000 	   33.9879
    0.3586 	   55.5253 	    4.0000 	   22.0000 	   34.4449
    0.3128 	   55.6413 	    4.0000 	   22.0000 	   34.9089
    0.0687 	   55.7578 	    4.0000 	   22.0000 	   35.3749
    0.3128 	   55.8740 	    4.0000 	   22.0000 	   35.8400
    0.2060 	   55.9883 	    4.0000 	   22.0000 	   36.2970
    0.2518 	   56.1030 	    4.0000 	   22.0000 	   36.7560
    0.2365 	   56.2150 	    4.0000 	   22.0000 	   37.2040
    0.3586 	   56.3300 	    4.0000 	   22.0000 	   37.6641
    0.3281 	   56.4493 	    4.0000 	   22.0000 	   38.1411
    0.1755 	   56.5680 	    4.0000 	   22.0000 	   38.6161
    0.3586 	   56.6808 	    4.0000 	   22.0000 	   39.0672
    0.3586 	   56.7985 	    4.0000 	   22.0000 	   39.5382
    0.2976 	   56.9103 	    4.0000 	   22.0000 	   39.9852
    0.3738 	   57.0263 	    4.0000 	   22.0000 	   40.4492
    0.2060 	   57.1405 	    4.0000 	   22.0000 	   40.9063
    0.2670 	   57.2603 	    4.0000 	   22.0000 	   41.3843
    0.2518 	   57.3768 	    4.0000 	   22.0000 	   41.8513
    0.2976 	   57.4955 	    4.0000 	   22.0000 	   42.3263
    0.3281 	   57.6128 	    4.0000 	   22.0000 	   42.7954
    0.4044 	   57.7335 	    4.0000 	   22.0000 	   43.2784
    0.2976 	   57.8483 	    4.0000 	   22.0000 	   43.7374
    0.4196 	   57.9723 	    4.0000 	   22.0000 	   44.2335
    0.2213 	   58.0893 	    4.0000 	   22.0000 	   44.7005
    0.2976 	   58.2093 	    4.0000 	   22.0000 	   45.1805
    0.1907 	   58.3250 	    4.0000 	   22.0000 	   45.6435
    0.3738 	   58.4403 	    4.0000 	   22.0000 	   46.1046
    0.2670 	   58.5580 	    4.0000 	   22.0000 	   46.5756
    0.4349 	   58.6785 	    4.0000 	   22.0000 	   47.0576
    0.4654 	   58.7960 	    4.0000 	   22.0000 	   47.5276
    0.3433 	   58.9158 	    4.0000 	   22.0000 	   48.0067
    0.1907 	   59.0380 	    4.0000 	   22.0000 	   48.4957
    0.2365 	   59.1540 	    4.0000 	   22.0000 	   48.9597
    0.4196 	   59.2678 	    4.0000 	   22.0000 	   49.4147
    0.3128 	   59.3868 	    4.0000 	   22.0000 	   49.8908
    0.3738 	   59.5080 	    4.0000 	   22.0000 	   50.3758
    0.1907 	   59.6248 	    4.0000 	   22.0000 	   50.8428
    0.3738 	   59.7438 	    4.0000 	   22.0000 	   51.3189
    0.3128 	   59.8593 	    4.0000 	   22.0000 	   51.7809
    0.4196 	   59.9758 	    4.0000 	   22.0000 	   52.2459
    0.3128 	   60.0938 	    4.0000 	   22.0000 	   52.7189
    0.2823 	   60.2103 	    4.0000 	   22.0000 	   53.1850
    0.2518 	   60.3253 	    4.0000 	   22.0000 	   53.6450
    0.2060 	   60.4405 	    4.0000 	   22.0000 	   54.1060
    0.3738 	   60.5655 	    4.0000 	   22.0000 	   54.6060
    0.3433 	   60.6838 	    4.0000 	   22.0000 	   55.0791
    0.3128 	   60.7995 	    4.0000 	   22.0000 	   55.5421
    0.2213 	   60.9195 	    4.0000 	   22.0000 	   56.0221
    0.3128 	   61.0388 	    4.0000 	   22.0000 	   56.4992
    0.2060 	   61.1543 	    4.0000 	   22.0000 	   56.9612
    0.2518 	   61.2698 	    4.0000 	   22.0000 	   57.4232
    0.1450 	   61.3873 	    4.0000 	   22.0000 	   57.8932
    0.3433 	   61.5065 	    4.0000 	   22.0000 	   58.3703
    0.3586 	   61.6295 	    4.0000 	   22.0000 	   58.8623
    0.2518 	   61.7500 	    4.0000 	   22.0000 	   59.3443
    0.1602 	   61.8668 	    4.0000 	   22.0000 	   59.8113
    0.2518 	   61.9845 	    4.0000 	   23.0000 	    0.2824
    0.2213 	   62.1080 	    4.0000 	   23.0000 	    0.7764
    0.3891 	   62.2263 	    4.0000 	   23.0000 	    1.2494
    0.3586 	   62.3485 	    4.0000 	   23.0000 	    1.7385
    0.3891 	   62.4655 	    4.0000 	   23.0000 	    2.2055
    0.3738 	   62.5830 	    4.0000 	   23.0000 	    2.6755
    0.2670 	   62.7013 	    4.0000 	   23.0000 	    3.1485
    0.1602 	   62.8218 	    4.0000 	   23.0000 	    3.6306
    0.3281 	   62.9413 	    4.0000 	   23.0000 	    4.1086
    0.3738 	   63.0640 	    4.0000 	   23.0000 	    4.5996
    0.2060 	   63.1833 	    4.0000 	   23.0000 	    5.0766
    0.3128 	   63.3018 	    4.0000 	   23.0000 	    5.5507
    0.1755 	   63.4245 	    4.0000 	   23.0000 	    6.0417
    0.1755 	   63.5500 	    4.0000 	   23.0000 	    6.5437
    0.2823 	   63.6750 	    4.0000 	   23.0000 	    7.0438
    0.2976 	   63.7945 	    4.0000 	   23.0000 	    7.5218
    0.3281 	   63.9190 	    4.0000 	   23.0000 	    8.0198
    0.2060 	   64.0445 	    4.0000 	   23.0000 	    8.5218
    0.4196 	   64.1665 	    4.0000 	   23.0000 	    9.0099
    0.1755 	   64.2890 	    4.0000 	   23.0000 	    9.4999
    0.4349 	   64.4123 	    4.0000 	   23.0000 	    9.9929
    0.2365 	   64.5322 	    4.0000 	   23.0000 	   10.4730
    0.2365 	   64.6560 	    4.0000 	   23.0000 	   10.9680
    0.1297 	   64.7783 	    4.0000 	   23.0000 	   11.4570
    0.2365 	   64.8985 	    4.0000 	   23.0000 	   11.9380
    0.2213 	   65.0182 	    4.0000 	   23.0000 	   12.4171
    0.0076 	   65.1410 	    4.0000 	   23.0000 	   12.9081
    0.1755 	   65.2658 	    4.0000 	   23.0000 	   13.4071
    0.2823 	   65.3895 	    4.0000 	   23.0000 	   13.9021
   -0.0687 	   65.5093 	    4.0000 	   23.0000 	   14.3812
    0.2213 	   65.6313 	    4.0000 	   23.0000 	   14.8692
    0.2670 	   65.7538 	    4.0000 	   23.0000 	   15.3592
    0.1907 	   65.8753 	    4.0000 	   23.0000 	   15.8453
    0.3433 	   65.9985 	    4.0000 	   23.0000 	   16.3383
    0.2060 	   66.1223 	    4.0000 	   23.0000 	   16.8333
    0.1907 	   66.2473 	    4.0000 	   23.0000 	   17.3333
    0.0076 	   66.3740 	    4.0000 	   23.0000 	   17.8404
    0.2060 	   66.4960 	    4.0000 	   23.0000 	   18.3284
    0.4501 	   66.6198 	    4.0000 	   23.0000 	   18.8234
    0.2823 	   66.7388 	    4.0000 	   23.0000 	   19.2995
    0.4044 	   66.8613 	    4.0000 	   23.0000 	   19.7885
    0.2365 	   66.9840 	    4.0000 	   23.0000 	   20.2795
    0.2213 	   67.1093 	    4.0000 	   23.0000 	   20.7805
    0.2670 	   67.2325 	    4.0000 	   23.0000 	   21.2736
    0.2213 	   67.3528 	    4.0000 	   23.0000 	   21.7546
    0.1907 	   67.4730 	    4.0000 	   23.0000 	   22.2356
    0.0381 	   67.5945 	    4.0000 	   23.0000 	   22.7217
    0.2213 	   67.7173 	    4.0000 	   23.0000 	   23.2127
    0.4654 	   67.8480 	    4.0000 	   23.0000 	   23.7357
    0.2365 	   67.9733 	    4.0000 	   23.0000 	   24.2367
    0.2213 	   68.0978 	    4.0000 	   23.0000 	   24.7348
    0.2213 	   68.2230 	    4.0000 	   23.0000 	   25.2358
    0.1297 	   68.3455 	    4.0000 	   23.0000 	   25.7258
    0.1907 	   68.4687 	    4.0000 	   23.0000 	   26.2189
    0.1297 	   68.5940 	    4.0000 	   23.0000 	   26.7199
    0.2060 	   68.7175 	    4.0000 	   23.0000 	   27.2139
    0.2060 	   68.8480 	    4.0000 	   23.0000 	   27.7359
    0.3128 	   68.9713 	    4.0000 	   23.0000 	   28.2290
    0.2213 	   69.0933 	    4.0000 	   23.0000 	   28.7170
    0.2976 	   69.2160 	    4.0000 	   23.0000 	   29.2080
    0.0992 	   69.3445 	    4.0000 	   23.0000 	   29.7221
    0.2670 	   69.4698 	    4.0000 	   23.0000 	   30.2231
    0.2060 	   69.5980 	    4.0000 	   23.0000 	   30.7361
    0.2823 	   69.7235 	    4.0000 	   23.0000 	   31.2381
   -0.0229 	   69.8483 	    4.0000 	   23.0000 	   31.7372
    0.1602 	   69.9725 	    4.0000 	   23.0000 	   32.2342
    0.2213 	   70.0998 	    4.0000 	   23.0000 	   32.7432
    0.1602 	   70.2275 	    4.0000 	   23.0000 	   33.2543
    0.2518 	   70.3510 	    4.0000 	   23.0000 	   33.7483
    0.1755 	   70.4790 	    4.0000 	   23.0000 	   34.2603
    0.2670 	   70.6043 	    4.0000 	   23.0000 	   34.7613
    0.0992 	   70.7285 	    4.0000 	   23.0000 	   35.2584
    0.0839 	   70.8580 	    4.0000 	   23.0000 	   35.7764
    0.2518 	   70.9848 	    4.0000 	   23.0000 	   36.2834
    0.1450 	   71.1115 	    4.0000 	   23.0000 	   36.7905
    0.1297 	   71.2423 	    4.0000 	   23.0000 	   37.3125
    0.2365 	   71.3678 	    4.0000 	   23.0000 	   37.8145
    0.2060 	   71.4930 	    4.0000 	   23.0000 	   38.3155
    0.1297 	   71.6180 	    4.0000 	   23.0000 	   38.8156
    0.1450 	   71.7448 	    4.0000 	   23.0000 	   39.3226
    0.1755 	   71.8758 	    4.0000 	   23.0000 	   39.8466
    0.2213 	   72.0035 	    4.0000 	   23.0000 	   40.3577
    0.2365 	   72.1293 	    4.0000 	   23.0000 	   40.8607
    0.1450 	   72.2545 	    4.0000 	   23.0000 	   41.3617
    0.1755 	   72.3808 	    4.0000 	   23.0000 	   41.8667
    0.1907 	   72.5088 	    4.0000 	   23.0000 	   42.3788
    0.2976 	   72.6363 	    4.0000 	   23.0000 	   42.8888
    0.0534 	   72.7653 	    4.0000 	   23.0000 	   43.4048
    0.3128 	   72.8893 	    4.0000 	   23.0000 	   43.9009
    0.2670 	   73.0180 	    4.0000 	   23.0000 	   44.4159
    0.1907 	   73.1448 	    4.0000 	   23.0000 	   44.9229
    0.1755 	   73.2715 	    4.0000 	   23.0000 	   45.4300
    0.1297 	   73.3985 	    4.0000 	   23.0000 	   45.9380
    0.1602 	   73.5278 	    4.0000 	   23.0000 	   46.4550
    0.1907 	   73.6533 	    4.0000 	   23.0000 	   46.9570
    0.0839 	   73.7800 	    4.0000 	   23.0000 	   47.4641
    0.1602 	   73.9065 	    4.0000 	   23.0000 	   47.9701
    0.1602 	   74.0350 	    4.0000 	   23.0000 	   48.4841
    0.1755 	   74.1638 	    4.0000 	   23.0000 	   48.9992
    0.2060 	   74.2920 	    4.0000 	   23.0000 	   49.5122
    0.2060 	   74.4200 	    4.0000 	   23.0000 	   50.0242
    0.2060 	   74.5488 	    4.0000 	   23.0000 	   50.5392
    0.0992 	   74.6800 	    4.0000 	   23.0000 	   51.0643
    0.1755 	   74.8115 	    4.0000 	   23.0000 	   51.5903
    0.1297 	   74.9405 	    4.0000 	   23.0000 	   52.1063
    0.1450 	   75.0680 	    4.0000 	   23.0000 	   52.6164
    0.1602 	   75.1968 	    4.0000 	   23.0000 	   53.1314
    0.1450 	   75.3290 	    4.0000 	   23.0000 	   53.6604
    0.1755 	   75.4633 	    4.0000 	   23.0000 	   54.1975
    0.1602 	   75.5898 	    4.0000 	   23.0000 	   54.7025
    0.1755 	   75.7203 	    4.0000 	   23.0000 	   55.2245
    0.1907 	   75.8495 	    4.0000 	   23.0000 	   55.7415
    0.0839 	   75.9790 	    4.0000 	   23.0000 	   56.2596
    0.1450 	   76.1083 	    4.0000 	   23.0000 	   56.7766
    0.2518 	   76.2380 	    4.0000 	   23.0000 	   57.2956
    0.0534 	   76.3708 	    4.0000 	   23.0000 	   57.8267
    0.0381 	   76.5048 	    4.0000 	   23.0000 	   58.3627
    0.2060 	   76.6355 	    4.0000 	   23.0000 	   58.8857
    0.2365 	   76.7678 	    4.0000 	   23.0000 	   59.4148
    0.1602 	   76.9005 	    4.0000 	   23.0000 	   59.9458
    0.0992 	   77.0370 	    4.0000 	   24.0000 	    0.4918
    0.1450 	   77.1710 	    4.0000 	   24.0000 	    1.0278
    0.1755 	   77.2995 	    4.0000 	   24.0000 	    1.5419
    0.2365 	   77.4333 	    4.0000 	   24.0000 	    2.0769
    0.0839 	   77.5690 	    4.0000 	   24.0000 	    2.6199
    0.1602 	   77.6998 	    4.0000 	   24.0000 	    3.1430
    0.2976 	   77.8298 	    4.0000 	   24.0000 	    3.6630
    0.2365 	   77.9635 	    4.0000 	   24.0000 	    4.1980
   -0.1602 	   78.0983 	    4.0000 	   24.0000 	    4.7371
    0.1144 	   78.2278 	    4.0000 	   24.0000 	    5.2551
    0.1755 	   78.3640 	    4.0000 	   24.0000 	    5.8001
    0.1450 	   78.4950 	    4.0000 	   24.0000 	    6.3241
    0.2213 	   78.6265 	    4.0000 	   24.0000 	    6.8502
    0.0534 	   78.7585 	    4.0000 	   24.0000 	    7.3782
    0.2670 	   78.8880 	    4.0000 	   24.0000 	    7.8962
    0.1144 	   79.0193 	    4.0000 	   24.0000 	    8.4213
    0.1907 	   79.1508 	    4.0000 	   24.0000 	    8.9473
    0.2365 	   79.2878 	    4.0000 	   24.0000 	    9.4953
    0.0839 	   79.4190 	    4.0000 	   24.0000 	   10.0204
    0.1450 	   79.4693 	    4.0000 	   24.0000 	   10.2214