File: instron/fabric_2W15L_drag30_spd15_nonstop.txt
Thayer School of Engineering        Instron 4442 Mechanical Testing System
6/28/2018 3:42:12 AM

  Force (N)	Extension (mm)	Not Used	Not Used	Not Used	     Hour	    Minute	    Second
    0.1907 	    0.2563 	    3.0000 	   42.0000 	   39.3139
    0.3586 	    0.3510 	    3.0000 	   42.0000 	   39.6929
    0.1297 	    0.4500 	    3.0000 	   42.0000 	   40.0889
    0.1907 	    0.5418 	    3.0000 	   42.0000 	   40.4560
    0.2213 	    0.6443 	    3.0000 	   42.0000 	   40.8660
    0.1297 	    0.7228 	    3.0000 	   42.0000 	   41.1800
    0.1907 	    0.7998 	    3.0000 	   42.0000 	   41.4880
    0.1907 	    0.8640 	    3.0000 	   42.0000 	   41.7450
    0.2213 	    0.9198 	    3.0000 	   42.0000 	   41.9680
    0.0839 	    0.9743 	    3.0000 	   42.0000 	   42.1861
    0.3128 	    1.0315 	    3.0000 	   42.0000 	   42.4151
    0.1602 	    1.0885 	    3.0000 	   42.0000 	   42.6431
    0.0687 	    1.1450 	    3.0000 	   42.0000 	   42.8691
    0.0687 	    1.2028 	    3.0000 	   42.0000 	   43.1001
    0.0687 	    1.2518 	    3.0000 	   42.0000 	   43.2961
    0.1755 	    1.3013 	    3.0000 	   42.0000 	   43.4941
    0.2670 	    1.3553 	    3.0000 	   42.0000 	   43.7102
    0.2670 	    1.4035 	    3.0000 	   42.0000 	   43.9032
    0.0992 	    1.4573 	    3.0000 	   42.0000 	   44.1182
    0.0992 	    1.5050 	    3.0000 	   42.0000 	   44.3092
    0.1144 	    1.5525 	    3.0000 	   42.0000 	   44.4992
    0.2518 	    1.6040 	    3.0000 	   42.0000 	   44.7052
    0.4349 	    1.6595 	    3.0000 	   42.0000 	   44.9272
    0.1144 	    1.7140 	    3.0000 	   42.0000 	   45.1452
    0.0076 	    1.7625 	    3.0000 	   42.0000 	   45.3392
    0.1907 	    1.8133 	    3.0000 	   42.0000 	   45.5423
    0.1297 	    1.8668 	    3.0000 	   42.0000 	   45.7563
    0.2518 	    1.9165 	    3.0000 	   42.0000 	   45.9553
    0.2976 	    1.9688 	    3.0000 	   42.0000 	   46.1643
    0.2213 	    2.0160 	    3.0000 	   42.0000 	   46.3533
    0.1297 	    2.0645 	    3.0000 	   42.0000 	   46.5473
    0.1907 	    2.1200 	    3.0000 	   42.0000 	   46.7693
    0.2365 	    2.1748 	    3.0000 	   42.0000 	   46.9883
    0.2213 	    2.2275 	    3.0000 	   42.0000 	   47.1993
    0.2060 	    2.2760 	    3.0000 	   42.0000 	   47.3934
    0.1297 	    2.3305 	    3.0000 	   42.0000 	   47.6114
    0.1450 	    2.3858 	    3.0000 	   42.0000 	   47.8324
    0.2670 	    2.4413 	    3.0000 	   42.0000 	   48.0544
    0.2060 	    2.4938 	    3.0000 	   42.0000 	   48.2644
    0.0229 	    2.5455 	    3.0000 	   42.0000 	   48.4714
    0.2213 	    2.6020 	    3.0000 	   42.0000 	   48.6974
    0.1144 	    2.6585 	    3.0000 	   42.0000 	   48.9234
   -0.0076 	    2.7150 	    3.0000 	   42.0000 	   49.1495
    0.3433 	    2.7653 	    3.0000 	   42.0000 	   49.3505
    0.3128 	    2.8135 	    3.0000 	   42.0000 	   49.5435
    0.1907 	    2.8653 	    3.0000 	   42.0000 	   49.7505
    0.2518 	    2.9193 	    3.0000 	   42.0000 	   49.9665
    0.3738 	    2.9688 	    3.0000 	   42.0000 	   50.1645
    0.0687 	    3.0185 	    3.0000 	   42.0000 	   50.3635
    0.1907 	    3.0673 	    3.0000 	   42.0000 	   50.5585
    0.1602 	    3.1185 	    3.0000 	   42.0000 	   50.7636
    0.2518 	    3.1718 	    3.0000 	   42.0000 	   50.9766
    0.3281 	    3.2215 	    3.0000 	   42.0000 	   51.1756
    0.2670 	    3.2705 	    3.0000 	   42.0000 	   51.3716
    0.1602 	    3.3203 	    3.0000 	   42.0000 	   51.5706
    0.1755 	    3.3695 	    3.0000 	   42.0000 	   51.7676
    0.3281 	    3.4203 	    3.0000 	   42.0000 	   51.9706
    0.1297 	    3.4773 	    3.0000 	   42.0000 	   52.1986
    0.2060 	    3.5270 	    3.0000 	   42.0000 	   52.3976
    0.0992 	    3.5775 	    3.0000 	   42.0000 	   52.5997
    0.1755 	    3.6280 	    3.0000 	   42.0000 	   52.8017
    0.3586 	    3.6795 	    3.0000 	   42.0000 	   53.0077
    0.1907 	    3.7308 	    3.0000 	   42.0000 	   53.2127
    0.2518 	    3.7815 	    3.0000 	   42.0000 	   53.4157
    0.0839 	    3.8353 	    3.0000 	   42.0000 	   53.6307
    0.1144 	    3.8918 	    3.0000 	   42.0000 	   53.8567
    0.3433 	    3.9505 	    3.0000 	   42.0000 	   54.0917
   -0.0839 	    4.0045 	    3.0000 	   42.0000 	   54.3078
    0.2213 	    4.0560 	    3.0000 	   42.0000 	   54.5138
    0.1297 	    4.1128 	    3.0000 	   42.0000 	   54.7408
    0.1297 	    4.1715 	    3.0000 	   42.0000 	   54.9758
    0.2518 	    4.2300 	    3.0000 	   42.0000 	   55.2098
    0.2060 	    4.2823 	    3.0000 	   42.0000 	   55.4178
    0.1297 	    4.3420 	    3.0000 	   42.0000 	   55.6568
    0.1907 	    4.4010 	    3.0000 	   42.0000 	   55.8928
    0.1755 	    4.4590 	    3.0000 	   42.0000 	   56.1249
    0.0992 	    4.5128 	    3.0000 	   42.0000 	   56.3399
    0.1602 	    4.5680 	    3.0000 	   42.0000 	   56.5609
    0.2213 	    4.6210 	    3.0000 	   42.0000 	   56.7729
    0.2365 	    4.6730 	    3.0000 	   42.0000 	   56.9809
    0.1602 	    4.7268 	    3.0000 	   42.0000 	   57.1959
    0.3281 	    4.7790 	    3.0000 	   42.0000 	   57.4049
    0.3433 	    4.8315 	    3.0000 	   42.0000 	   57.6149
    0.1755 	    4.8840 	    3.0000 	   42.0000 	   57.8250
    0.2060 	    4.9378 	    3.0000 	   42.0000 	   58.0400
    0.3433 	    4.9933 	    3.0000 	   42.0000 	   58.2620
    0.2670 	    5.0463 	    3.0000 	   42.0000 	   58.4740
    0.0839 	    5.0990 	    3.0000 	   42.0000 	   58.6850
    0.2518 	    5.1528 	    3.0000 	   42.0000 	   58.9000
    0.2670 	    5.2063 	    3.0000 	   42.0000 	   59.1140
    0.2976 	    5.2618 	    3.0000 	   42.0000 	   59.3360
    0.2060 	    5.3150 	    3.0000 	   42.0000 	   59.5491
    0.2518 	    5.3693 	    3.0000 	   42.0000 	   59.7661
    0.1755 	    5.4245 	    3.0000 	   42.0000 	   59.9871
    0.1755 	    5.4815 	    3.0000 	   43.0000 	    0.2151
    0.1907 	    5.5360 	    3.0000 	   43.0000 	    0.4331
    0.2670 	    5.5970 	    3.0000 	   43.0000 	    0.6771
    0.2518 	    5.6588 	    3.0000 	   43.0000 	    0.9241
    0.1602 	    5.7165 	    3.0000 	   43.0000 	    1.1551
    0.2518 	    5.7728 	    3.0000 	   43.0000 	    1.3802
    0.1907 	    5.8268 	    3.0000 	   43.0000 	    1.5962
    0.3586 	    5.8808 	    3.0000 	   43.0000 	    1.8122
    0.2518 	    5.9393 	    3.0000 	   43.0000 	    2.0462
    0.4349 	    5.9935 	    3.0000 	   43.0000 	    2.2632
    0.2518 	    6.0493 	    3.0000 	   43.0000 	    2.4862
    0.2365 	    6.1115 	    3.0000 	   43.0000 	    2.7352
    0.1450 	    6.1733 	    3.0000 	   43.0000 	    2.9823
    0.3128 	    6.2358 	    3.0000 	   43.0000 	    3.2323
    0.2518 	    6.2913 	    3.0000 	   43.0000 	    3.4543
    0.2976 	    6.3465 	    3.0000 	   43.0000 	    3.6753
    0.3433 	    6.4018 	    3.0000 	   43.0000 	    3.8963
    0.0381 	    6.4583 	    3.0000 	   43.0000 	    4.1223
    0.2365 	    6.5183 	    3.0000 	   43.0000 	    4.3623
    0.2213 	    6.5765 	    3.0000 	   43.0000 	    4.5953
    0.2060 	    6.6403 	    3.0000 	   43.0000 	    4.8504
    0.2213 	    6.7015 	    3.0000 	   43.0000 	    5.0954
    0.3281 	    6.7605 	    3.0000 	   43.0000 	    5.3314
    0.2670 	    6.8190 	    3.0000 	   43.0000 	    5.5654
    0.2976 	    6.8818 	    3.0000 	   43.0000 	    5.8164
    0.2365 	    6.9398 	    3.0000 	   43.0000 	    6.0484
    0.1144 	    6.9953 	    3.0000 	   43.0000 	    6.2704
    0.1602 	    7.0533 	    3.0000 	   43.0000 	    6.5025
    0.2823 	    7.1135 	    3.0000 	   43.0000 	    6.7435
    0.3738 	    7.1765 	    3.0000 	   43.0000 	    6.9955
    0.3128 	    7.2408 	    3.0000 	   43.0000 	    7.2525
    0.3433 	    7.2990 	    3.0000 	   43.0000 	    7.4855
    0.2213 	    7.3553 	    3.0000 	   43.0000 	    7.7105
    0.3128 	    7.4168 	    3.0000 	   43.0000 	    7.9565
    0.3738 	    7.4805 	    3.0000 	   43.0000 	    8.2116
    0.3586 	    7.5380 	    3.0000 	   43.0000 	    8.4416
    0.3128 	    7.6013 	    3.0000 	   43.0000 	    8.6946
    0.1144 	    7.6648 	    3.0000 	   43.0000 	    8.9486
    0.2823 	    7.7273 	    3.0000 	   43.0000 	    9.1986
    0.3586 	    7.7845 	    3.0000 	   43.0000 	    9.4276
    0.1297 	    7.8420 	    3.0000 	   43.0000 	    9.6576
    0.2060 	    7.9060 	    3.0000 	   43.0000 	    9.9136
    0.2365 	    7.9703 	    3.0000 	   43.0000 	   10.1707
    0.2823 	    8.0305 	    3.0000 	   43.0000 	   10.4117
    0.3128 	    8.0875 	    3.0000 	   43.0000 	   10.6397
    0.4654 	    8.1515 	    3.0000 	   43.0000 	   10.8957
    0.3281 	    8.2150 	    3.0000 	   43.0000 	   11.1497
    0.3128 	    8.2765 	    3.0000 	   43.0000 	   11.3957
    0.3281 	    8.3350 	    3.0000 	   43.0000 	   11.6297
    0.1602 	    8.4010 	    3.0000 	   43.0000 	   11.8938
    0.2670 	    8.4660 	    3.0000 	   43.0000 	   12.1538
    0.3433 	    8.5270 	    3.0000 	   43.0000 	   12.3978
    0.2365 	    8.5853 	    3.0000 	   43.0000 	   12.6308
    0.3738 	    8.6525 	    3.0000 	   43.0000 	   12.8988
    0.3433 	    8.7185 	    3.0000 	   43.0000 	   13.1628
    0.0076 	    8.7812 	    3.0000 	   43.0000 	   13.4138
    0.2670 	    8.8423 	    3.0000 	   43.0000 	   13.6579
    0.1755 	    8.9090 	    3.0000 	   43.0000 	   13.9249
    0.2518 	    8.9760 	    3.0000 	   43.0000 	   14.1929
    0.4501 	    9.0382 	    3.0000 	   43.0000 	   14.4419
    0.3586 	    9.1020 	    3.0000 	   43.0000 	   14.6969
    0.2823 	    9.1688 	    3.0000 	   43.0000 	   14.9639
    0.3586 	    9.2388 	    3.0000 	   43.0000 	   15.2440
    0.2823 	    9.2978 	    3.0000 	   43.0000 	   15.4800
    0.0229 	    9.3558 	    3.0000 	   43.0000 	   15.7120
    0.3891 	    9.4185 	    3.0000 	   43.0000 	   15.9630
    0.3433 	    9.4843 	    3.0000 	   43.0000 	   16.2260
    0.3738 	    9.5455 	    3.0000 	   43.0000 	   16.4710
    0.2060 	    9.6048 	    3.0000 	   43.0000 	   16.7080
    0.3128 	    9.6678 	    3.0000 	   43.0000 	   16.9601
    0.4654 	    9.7348 	    3.0000 	   43.0000 	   17.2281
    0.4044 	    9.7970 	    3.0000 	   43.0000 	   17.4771
    0.2976 	    9.8595 	    3.0000 	   43.0000 	   17.7271
    0.3738 	    9.9268 	    3.0000 	   43.0000 	   17.9961
    0.3433 	    9.9935 	    3.0000 	   43.0000 	   18.2631
    0.2823 	   10.0553 	    3.0000 	   43.0000 	   18.5101
    0.4501 	   10.1198 	    3.0000 	   43.0000 	   18.7682
    0.4807 	   10.1848 	    3.0000 	   43.0000 	   19.0282
    0.4959 	   10.2528 	    3.0000 	   43.0000 	   19.3002
    0.3586 	   10.3143 	    3.0000 	   43.0000 	   19.5462
    0.2365 	   10.3758 	    3.0000 	   43.0000 	   19.7922
    0.3586 	   10.4445 	    3.0000 	   43.0000 	   20.0672
    0.3281 	   10.5133 	    3.0000 	   43.0000 	   20.3422
    0.2823 	   10.5758 	    3.0000 	   43.0000 	   20.5923
    0.3738 	   10.6415 	    3.0000 	   43.0000 	   20.8553
    0.2213 	   10.7118 	    3.0000 	   43.0000 	   21.1363
    0.2823 	   10.7790 	    3.0000 	   43.0000 	   21.4053
    0.4196 	   10.8413 	    3.0000 	   43.0000 	   21.6543
    0.2976 	   10.9115 	    3.0000 	   43.0000 	   21.9353
    0.3586 	   10.9813 	    3.0000 	   43.0000 	   22.2144
    0.3738 	   11.0485 	    3.0000 	   43.0000 	   22.4834
    0.4044 	   11.1125 	    3.0000 	   43.0000 	   22.7394
    0.5112 	   11.1815 	    3.0000 	   43.0000 	   23.0154
    0.3738 	   11.2525 	    3.0000 	   43.0000 	   23.2994
    0.3128 	   11.3173 	    3.0000 	   43.0000 	   23.5584
    0.2213 	   11.3823 	    3.0000 	   43.0000 	   23.8184
    0.4501 	   11.4503 	    3.0000 	   43.0000 	   24.0905
    0.2365 	   11.5178 	    3.0000 	   43.0000 	   24.3605
    0.2518 	   11.5813 	    3.0000 	   43.0000 	   24.6145
    0.2670 	   11.6515 	    3.0000 	   43.0000 	   24.8955
    0.4501 	   11.7208 	    3.0000 	   43.0000 	   25.1725
    0.3281 	   11.7900 	    3.0000 	   43.0000 	   25.4495
    0.1297 	   11.8558 	    3.0000 	   43.0000 	   25.7126
    0.5417 	   11.9285 	    3.0000 	   43.0000 	   26.0036
    0.3281 	   11.9980 	    3.0000 	   43.0000 	   26.2806
    0.3281 	   12.0658 	    3.0000 	   43.0000 	   26.5526
    0.2823 	   12.1363 	    3.0000 	   43.0000 	   26.8346
    0.4807 	   12.2060 	    3.0000 	   43.0000 	   27.1136
    0.3738 	   12.2780 	    3.0000 	   43.0000 	   27.4016
    0.3738 	   12.3430 	    3.0000 	   43.0000 	   27.6617
    0.4044 	   12.4100 	    3.0000 	   43.0000 	   27.9297
    0.2518 	   12.4820 	    3.0000 	   43.0000 	   28.2177
    0.1297 	   12.5520 	    3.0000 	   43.0000 	   28.4977
    0.3738 	   12.6200 	    3.0000 	   43.0000 	   28.7697
    0.5264 	   12.6863 	    3.0000 	   43.0000 	   29.0347
    0.2060 	   12.7550 	    3.0000 	   43.0000 	   29.3098
    0.1755 	   12.8220 	    3.0000 	   43.0000 	   29.5778
    0.3586 	   12.8910 	    3.0000 	   43.0000 	   29.8538
    0.4044 	   12.9610 	    3.0000 	   43.0000 	   30.1338
    0.1907 	   13.0325 	    3.0000 	   43.0000 	   30.4188
    0.4196 	   13.0985 	    3.0000 	   43.0000 	   30.6828
    0.4349 	   13.1663 	    3.0000 	   43.0000 	   30.9539
    0.3891 	   13.2395 	    3.0000 	   43.0000 	   31.2469
    0.3891 	   13.3090 	    3.0000 	   43.0000 	   31.5249
    0.2670 	   13.3768 	    3.0000 	   43.0000 	   31.7959
    0.4044 	   13.4445 	    3.0000 	   43.0000 	   32.0669
    0.2976 	   13.5115 	    3.0000 	   43.0000 	   32.3349
    0.4349 	   13.5788 	    3.0000 	   43.0000 	   32.6039
    0.2518 	   13.6463 	    3.0000 	   43.0000 	   32.8740
    0.4196 	   13.7173 	    3.0000 	   43.0000 	   33.1580
    0.3433 	   13.7860 	    3.0000 	   43.0000 	   33.4330
    0.4196 	   13.8523 	    3.0000 	   43.0000 	   33.6980
    0.4044 	   13.9235 	    3.0000 	   43.0000 	   33.9830
    0.3738 	   13.9933 	    3.0000 	   43.0000 	   34.2620
    0.3433 	   14.0625 	    3.0000 	   43.0000 	   34.5391
    0.3433 	   14.1290 	    3.0000 	   43.0000 	   34.8051
    0.4501 	   14.1970 	    3.0000 	   43.0000 	   35.0771
    0.5570 	   14.2643 	    3.0000 	   43.0000 	   35.3461
    0.3128 	   14.3323 	    3.0000 	   43.0000 	   35.6181
    0.4501 	   14.3993 	    3.0000 	   43.0000 	   35.8861
    0.4654 	   14.4708 	    3.0000 	   43.0000 	   36.1721
    0.3281 	   14.5385 	    3.0000 	   43.0000 	   36.4432
    0.2976 	   14.6063 	    3.0000 	   43.0000 	   36.7142
    0.5112 	   14.6783 	    3.0000 	   43.0000 	   37.0022
    0.0687 	   14.7520 	    3.0000 	   43.0000 	   37.2972
    0.4959 	   14.8183 	    3.0000 	   43.0000 	   37.5622
    0.3738 	   14.8850 	    3.0000 	   43.0000 	   37.8292
    0.1602 	   14.9548 	    3.0000 	   43.0000 	   38.1083
    0.2670 	   15.0235 	    3.0000 	   43.0000 	   38.3833
    0.4959 	   15.0895 	    3.0000 	   43.0000 	   38.6473
    0.4654 	   15.1628 	    3.0000 	   43.0000 	   38.9403
    0.5417 	   15.2353 	    3.0000 	   43.0000 	   39.2303
    0.3433 	   15.3088 	    3.0000 	   43.0000 	   39.5243
    0.3891 	   15.3763 	    3.0000 	   43.0000 	   39.7944
    0.4501 	   15.4483 	    3.0000 	   43.0000 	   40.0824
    0.4044 	   15.5228 	    3.0000 	   43.0000 	   40.3804
    0.4196 	   15.5933 	    3.0000 	   43.0000 	   40.6624
    0.3891 	   15.6613 	    3.0000 	   43.0000 	   40.9344
    0.4196 	   15.7318 	    3.0000 	   43.0000 	   41.2164
    0.5722 	   15.8018 	    3.0000 	   43.0000 	   41.4965
    0.3586 	   15.8708 	    3.0000 	   43.0000 	   41.7725
    0.5264 	   15.9408 	    3.0000 	   43.0000 	   42.0525
    0.4349 	   16.0093 	    3.0000 	   43.0000 	   42.3265
    0.5570 	   16.0788 	    3.0000 	   43.0000 	   42.6045
    0.5264 	   16.1523 	    3.0000 	   43.0000 	   42.8985
    0.5112 	   16.2275 	    3.0000 	   43.0000 	   43.1996
    0.4959 	   16.2973 	    3.0000 	   43.0000 	   43.4786
    0.4501 	   16.3668 	    3.0000 	   43.0000 	   43.7566
    0.4501 	   16.4385 	    3.0000 	   43.0000 	   44.0436
    0.4959 	   16.5100 	    3.0000 	   43.0000 	   44.3296
    0.4501 	   16.5845 	    3.0000 	   43.0000 	   44.6276
    0.3586 	   16.6545 	    3.0000 	   43.0000 	   44.9076
    0.3891 	   16.7245 	    3.0000 	   43.0000 	   45.1877
    0.4501 	   16.8015 	    3.0000 	   43.0000 	   45.4957
    0.5112 	   16.8695 	    3.0000 	   43.0000 	   45.7677
    0.2976 	   16.9423 	    3.0000 	   43.0000 	   46.0587
    0.5264 	   17.0120 	    3.0000 	   43.0000 	   46.3377
    0.4044 	   17.0845 	    3.0000 	   43.0000 	   46.6277
    0.3891 	   17.1540 	    3.0000 	   43.0000 	   46.9058
    0.4349 	   17.2280 	    3.0000 	   43.0000 	   47.2018
    0.0687 	   17.3010 	    3.0000 	   43.0000 	   47.4938
    0.4654 	   17.3720 	    3.0000 	   43.0000 	   47.7778
    0.3128 	   17.4478 	    3.0000 	   43.0000 	   48.0798
    0.4959 	   17.5200 	    3.0000 	   43.0000 	   48.3688
    0.4044 	   17.5930 	    3.0000 	   43.0000 	   48.6609
    0.3738 	   17.6667 	    3.0000 	   43.0000 	   48.9559
    0.4807 	   17.7393 	    3.0000 	   43.0000 	   49.2459
    0.5722 	   17.8100 	    3.0000 	   43.0000 	   49.5289
    0.4959 	   17.8825 	    3.0000 	   43.0000 	   49.8189
    0.5570 	   17.9605 	    3.0000 	   43.0000 	   50.1309
    0.5264 	   18.0388 	    3.0000 	   43.0000 	   50.4440
    0.6180 	   18.1098 	    3.0000 	   43.0000 	   50.7280
    0.4044 	   18.1810 	    3.0000 	   43.0000 	   51.0130
    0.4196 	   18.2568 	    3.0000 	   43.0000 	   51.3160
    0.4501 	   18.3298 	    3.0000 	   43.0000 	   51.6080
    0.5264 	   18.3990 	    3.0000 	   43.0000 	   51.8850
    0.4654 	   18.4715 	    3.0000 	   43.0000 	   52.1751
    0.4654 	   18.5465 	    3.0000 	   43.0000 	   52.4751
    0.5112 	   18.6163 	    3.0000 	   43.0000 	   52.7541
    0.3891 	   18.6893 	    3.0000 	   43.0000 	   53.0461
    0.5722 	   18.7613 	    3.0000 	   43.0000 	   53.3341
    0.5417 	   18.8343 	    3.0000 	   43.0000 	   53.6261
    0.4044 	   18.9088 	    3.0000 	   43.0000 	   53.9242
    0.5112 	   18.9805 	    3.0000 	   43.0000 	   54.2112
    0.4349 	   19.0523 	    3.0000 	   43.0000 	   54.4982
    0.1144 	   19.1235 	    3.0000 	   43.0000 	   54.7832
    0.3738 	   19.1995 	    3.0000 	   43.0000 	   55.0872
    0.3891 	   19.2743 	    3.0000 	   43.0000 	   55.3862
    0.3891 	   19.3453 	    3.0000 	   43.0000 	   55.6703
    0.4196 	   19.4213 	    3.0000 	   43.0000 	   55.9743
    0.3891 	   19.4935 	    3.0000 	   43.0000 	   56.2633
    0.5112 	   19.5648 	    3.0000 	   43.0000 	   56.5483
    0.4807 	   19.6345 	    3.0000 	   43.0000 	   56.8273
    0.5722 	   19.7133 	    3.0000 	   43.0000 	   57.1423
    0.4349 	   19.7910 	    3.0000 	   43.0000 	   57.4534
    0.4044 	   19.8630 	    3.0000 	   43.0000 	   57.7414
    0.5722 	   19.9395 	    3.0000 	   43.0000 	   58.0474
    0.5570 	   20.0123 	    3.0000 	   43.0000 	   58.3384
    0.4959 	   20.0885 	    3.0000 	   43.0000 	   58.6434
    0.5112 	   20.1645 	    3.0000 	   43.0000 	   58.9475
    0.5264 	   20.2418 	    3.0000 	   43.0000 	   59.2565
    0.5417 	   20.3170 	    3.0000 	   43.0000 	   59.5575
    0.5112 	   20.3875 	    3.0000 	   43.0000 	   59.8395
    0.4349 	   20.4610 	    3.0000 	   44.0000 	    0.1335
    0.4501 	   20.5355 	    3.0000 	   44.0000 	    0.4315
    0.4959 	   20.6065 	    3.0000 	   44.0000 	    0.7156
    0.5875 	   20.6815 	    3.0000 	   44.0000 	    1.0156
    0.5570 	   20.7543 	    3.0000 	   44.0000 	    1.3066
    0.4654 	   20.8265 	    3.0000 	   44.0000 	    1.5956
    0.5112 	   20.8990 	    3.0000 	   44.0000 	    1.8856
    0.6027 	   20.9765 	    3.0000 	   44.0000 	    2.1956
    0.7553 	   21.0565 	    3.0000 	   44.0000 	    2.5157
    0.5264 	   21.1300 	    3.0000 	   44.0000 	    2.8097
    0.6485 	   21.2073 	    3.0000 	   44.0000 	    3.1187
    0.6027 	   21.2783 	    3.0000 	   44.0000 	    3.4027
    0.5417 	   21.3523 	    3.0000 	   44.0000 	    3.6987
    0.4959 	   21.4265 	    3.0000 	   44.0000 	    3.9957
    0.5722 	   21.5013 	    3.0000 	   44.0000 	    4.2948
    0.5417 	   21.5768 	    3.0000 	   44.0000 	    4.5968
    0.4654 	   21.6500 	    3.0000 	   44.0000 	    4.8898
    0.5417 	   21.7218 	    3.0000 	   44.0000 	    5.1768
    0.4807 	   21.8003 	    3.0000 	   44.0000 	    5.4898
    0.5112 	   21.8750 	    3.0000 	   44.0000 	    5.7888
    0.4807 	   21.9533 	    3.0000 	   44.0000 	    6.1019
    0.5112 	   22.0363 	    3.0000 	   44.0000 	    6.4339
    0.6485 	   22.1133 	    3.0000 	   44.0000 	    6.7419
    0.6332 	   22.1930 	    3.0000 	   44.0000 	    7.0609
    0.4349 	   22.2693 	    3.0000 	   44.0000 	    7.3659
    0.4807 	   22.3428 	    3.0000 	   44.0000 	    7.6600
    0.3738 	   22.4168 	    3.0000 	   44.0000 	    7.9560
    0.6180 	   22.4925 	    3.0000 	   44.0000 	    8.2590
    0.4196 	   22.5743 	    3.0000 	   44.0000 	    8.5860
    0.5264 	   22.6483 	    3.0000 	   44.0000 	    8.8820
    0.5112 	   22.7235 	    3.0000 	   44.0000 	    9.1830
    0.5875 	   22.7980 	    3.0000 	   44.0000 	    9.4811
    0.6180 	   22.8725 	    3.0000 	   44.0000 	    9.7791
    0.6027 	   22.9458 	    3.0000 	   44.0000 	   10.0721
    0.5264 	   23.0225 	    3.0000 	   44.0000 	   10.3791
    0.4807 	   23.0973 	    3.0000 	   44.0000 	   10.6781
    0.4196 	   23.1755 	    3.0000 	   44.0000 	   10.9911
    0.6790 	   23.2503 	    3.0000 	   44.0000 	   11.2902
    0.5264 	   23.3285 	    3.0000 	   44.0000 	   11.6022
    0.6180 	   23.4033 	    3.0000 	   44.0000 	   11.9022
    0.6027 	   23.4770 	    3.0000 	   44.0000 	   12.1972
    0.5722 	   23.5543 	    3.0000 	   44.0000 	   12.5062
    0.6790 	   23.6298 	    3.0000 	   44.0000 	   12.8082
    0.6332 	   23.7055 	    3.0000 	   44.0000 	   13.1113
    0.5875 	   23.7798 	    3.0000 	   44.0000 	   13.4083
    0.4959 	   23.8555 	    3.0000 	   44.0000 	   13.7113
    0.6485 	   23.9293 	    3.0000 	   44.0000 	   14.0063
    0.5875 	   24.0045 	    3.0000 	   44.0000 	   14.3073
    0.5722 	   24.0810 	    3.0000 	   44.0000 	   14.6133
    0.5570 	   24.1573 	    3.0000 	   44.0000 	   14.9184
    0.6180 	   24.2385 	    3.0000 	   44.0000 	   15.2434
    0.5417 	   24.3170 	    3.0000 	   44.0000 	   15.5574
    0.4501 	   24.3930 	    3.0000 	   44.0000 	   15.8614
    0.5112 	   24.4713 	    3.0000 	   44.0000 	   16.1744
    0.6332 	   24.5483 	    3.0000 	   44.0000 	   16.4825
    0.5417 	   24.6243 	    3.0000 	   44.0000 	   16.7865
    0.6180 	   24.7010 	    3.0000 	   44.0000 	   17.0935
    0.6485 	   24.7820 	    3.0000 	   44.0000 	   17.4175
    0.5417 	   24.8620 	    3.0000 	   44.0000 	   17.7375
    0.3128 	   24.9368 	    3.0000 	   44.0000 	   18.0365
    0.5417 	   25.0150 	    3.0000 	   44.0000 	   18.3496
    0.2365 	   25.0905 	    3.0000 	   44.0000 	   18.6516
    0.5722 	   25.1668 	    3.0000 	   44.0000 	   18.9566
    0.6180 	   25.2478 	    3.0000 	   44.0000 	   19.2806
    0.6638 	   25.3313 	    3.0000 	   44.0000 	   19.6146
    0.5722 	   25.4073 	    3.0000 	   44.0000 	   19.9187
    0.6332 	   25.4900 	    3.0000 	   44.0000 	   20.2497
    0.5417 	   25.5675 	    3.0000 	   44.0000 	   20.5597
    0.5570 	   25.6445 	    3.0000 	   44.0000 	   20.8677
    0.5417 	   25.7223 	    3.0000 	   44.0000 	   21.1787
    0.5417 	   25.8035 	    3.0000 	   44.0000 	   21.5037
    0.5722 	   25.8818 	    3.0000 	   44.0000 	   21.8168
    0.4654 	   25.9608 	    3.0000 	   44.0000 	   22.1328
    0.5570 	   26.0428 	    3.0000 	   44.0000 	   22.4608
    0.7401 	   26.1253 	    3.0000 	   44.0000 	   22.7908
    0.5722 	   26.2008 	    3.0000 	   44.0000 	   23.0918
    0.5722 	   26.2810 	    3.0000 	   44.0000 	   23.4129
    0.6790 	   26.3628 	    3.0000 	   44.0000 	   23.7399
    0.6638 	   26.4405 	    3.0000 	   44.0000 	   24.0509
    0.6180 	   26.5230 	    3.0000 	   44.0000 	   24.3809
    0.4807 	   26.6018 	    3.0000 	   44.0000 	   24.6959
    0.5875 	   26.6785 	    3.0000 	   44.0000 	   25.0029
    0.6332 	   26.7570 	    3.0000 	   44.0000 	   25.3170
    0.5570 	   26.8343 	    3.0000 	   44.0000 	   25.6260
    0.6485 	   26.9113 	    3.0000 	   44.0000 	   25.9340
    0.3433 	   26.9865 	    3.0000 	   44.0000 	   26.2350
    0.6180 	   27.0660 	    3.0000 	   44.0000 	   26.5530
    0.5875 	   27.1463 	    3.0000 	   44.0000 	   26.8741
    0.5722 	   27.2240 	    3.0000 	   44.0000 	   27.1851
    0.5570 	   27.3025 	    3.0000 	   44.0000 	   27.4991
    0.6638 	   27.3808 	    3.0000 	   44.0000 	   27.8121
    0.6180 	   27.4578 	    3.0000 	   44.0000 	   28.1201
    0.7095 	   27.5400 	    3.0000 	   44.0000 	   28.4491
    0.4654 	   27.6160 	    3.0000 	   44.0000 	   28.7532
    0.6485 	   27.6908 	    3.0000 	   44.0000 	   29.0522
    0.3738 	   27.7680 	    3.0000 	   44.0000 	   29.3612
    0.6790 	   27.8455 	    3.0000 	   44.0000 	   29.6712
    0.6485 	   27.9230 	    3.0000 	   44.0000 	   29.9812
    0.6180 	   27.9998 	    3.0000 	   44.0000 	   30.2882
    0.6943 	   28.0768 	    3.0000 	   44.0000 	   30.5963
    0.5264 	   28.1548 	    3.0000 	   44.0000 	   30.9083
    0.7248 	   28.2293 	    3.0000 	   44.0000 	   31.2063
    0.6943 	   28.3050 	    3.0000 	   44.0000 	   31.5093
    0.8011 	   28.3820 	    3.0000 	   44.0000 	   31.8173
    0.8469 	   28.4593 	    3.0000 	   44.0000 	   32.1264
    0.6332 	   28.5390 	    3.0000 	   44.0000 	   32.4454
    0.5264 	   28.6188 	    3.0000 	   44.0000 	   32.7644
    0.5264 	   28.6948 	    3.0000 	   44.0000 	   33.0684
    0.6332 	   28.7723 	    3.0000 	   44.0000 	   33.3784
    0.4349 	   28.8490 	    3.0000 	   44.0000 	   33.6854
    0.6180 	   28.9263 	    3.0000 	   44.0000 	   33.9945
    0.6790 	   29.0050 	    3.0000 	   44.0000 	   34.3095
    0.6027 	   29.0840 	    3.0000 	   44.0000 	   34.6255
    0.5112 	   29.1648 	    3.0000 	   44.0000 	   34.9485
    0.6332 	   29.2415 	    3.0000 	   44.0000 	   35.2555
    0.5722 	   29.3195 	    3.0000 	   44.0000 	   35.5675
    0.6790 	   29.3983 	    3.0000 	   44.0000 	   35.8826
    0.7553 	   29.4753 	    3.0000 	   44.0000 	   36.1906
    0.5417 	   29.5525 	    3.0000 	   44.0000 	   36.4996
    0.6180 	   29.6310 	    3.0000 	   44.0000 	   36.8136
    0.6638 	   29.7085 	    3.0000 	   44.0000 	   37.1236
    0.6943 	   29.7873 	    3.0000 	   44.0000 	   37.4387
    0.6485 	   29.8653 	    3.0000 	   44.0000 	   37.7507
    0.7858 	   29.9435 	    3.0000 	   44.0000 	   38.0637
    0.5875 	   30.0215 	    3.0000 	   44.0000 	   38.3757
    0.7401 	   30.1045 	    3.0000 	   44.0000 	   38.7077
    0.9537 	   30.1833 	    3.0000 	   44.0000 	   39.0227
    0.6790 	   30.2645 	    3.0000 	   44.0000 	   39.3478
    0.7095 	   30.3430 	    3.0000 	   44.0000 	   39.6618
    0.5875 	   30.4223 	    3.0000 	   44.0000 	   39.9788
    0.7553 	   30.5053 	    3.0000 	   44.0000 	   40.3098
    0.7706 	   30.5865 	    3.0000 	   44.0000 	   40.6348
    0.6790 	   30.6663 	    3.0000 	   44.0000 	   40.9539
    0.5570 	   30.7475 	    3.0000 	   44.0000 	   41.2789
    0.7706 	   30.8278 	    3.0000 	   44.0000 	   41.5999
    0.7706 	   30.9090 	    3.0000 	   44.0000 	   41.9249
    0.6790 	   30.9880 	    3.0000 	   44.0000 	   42.2409
    0.5570 	   31.0708 	    3.0000 	   44.0000 	   42.5719
    0.6332 	   31.1528 	    3.0000 	   44.0000 	   42.9000
    0.6485 	   31.2315 	    3.0000 	   44.0000 	   43.2150
    0.6790 	   31.3108 	    3.0000 	   44.0000 	   43.5320
    0.6180 	   31.3923 	    3.0000 	   44.0000 	   43.8580
    0.5875 	   31.4723 	    3.0000 	   44.0000 	   44.1780
    0.6332 	   31.5575 	    3.0000 	   44.0000 	   44.5191
    0.5722 	   31.6433 	    3.0000 	   44.0000 	   44.8621
    0.5722 	   31.7245 	    3.0000 	   44.0000 	   45.1871
    0.6180 	   31.8065 	    3.0000 	   44.0000 	   45.5151
    0.5875 	   31.8855 	    3.0000 	   44.0000 	   45.8311
    0.5112 	   31.9643 	    3.0000 	   44.0000 	   46.1462
    0.6180 	   32.0463 	    3.0000 	   44.0000 	   46.4742
    0.7401 	   32.1280 	    3.0000 	   44.0000 	   46.8012
    0.5112 	   32.2078 	    3.0000 	   44.0000 	   47.1202
    0.3891 	   32.2945 	    3.0000 	   44.0000 	   47.4672
    0.6332 	   32.3750 	    3.0000 	   44.0000 	   47.7892
    0.2518 	   32.4558 	    3.0000 	   44.0000 	   48.1123
    0.4501 	   32.5368 	    3.0000 	   44.0000 	   48.4363
    0.4959 	   32.6195 	    3.0000 	   44.0000 	   48.7673
    0.5570 	   32.7043 	    3.0000 	   44.0000 	   49.1063
    0.2060 	   32.7843 	    3.0000 	   44.0000 	   49.4263
    0.6638 	   32.8640 	    3.0000 	   44.0000 	   49.7454
    0.6638 	   32.9470 	    3.0000 	   44.0000 	   50.0774
    0.5570 	   33.0308 	    3.0000 	   44.0000 	   50.4124
    0.5570 	   33.1153 	    3.0000 	   44.0000 	   50.7504
    0.5112 	   33.1978 	    3.0000 	   44.0000 	   51.0804
    0.5570 	   33.2835 	    3.0000 	   44.0000 	   51.4235
    0.6485 	   33.3663 	    3.0000 	   44.0000 	   51.7545
    0.6180 	   33.4482 	    3.0000 	   44.0000 	   52.0825
    0.7553 	   33.5285 	    3.0000 	   44.0000 	   52.4035
    0.4959 	   33.6093 	    3.0000 	   44.0000 	   52.7265
    0.5264 	   33.6918 	    3.0000 	   44.0000 	   53.0565
    0.5570 	   33.7773 	    3.0000 	   44.0000 	   53.3986
    0.5417 	   33.8577 	    3.0000 	   44.0000 	   53.7206
    0.4959 	   33.9395 	    3.0000 	   44.0000 	   54.0476
    0.6943 	   34.0223 	    3.0000 	   44.0000 	   54.3786
    0.4654 	   34.1058 	    3.0000 	   44.0000 	   54.7126
    0.5112 	   34.1900 	    3.0000 	   44.0000 	   55.0497
    0.2518 	   34.2705 	    3.0000 	   44.0000 	   55.3717
    0.6180 	   34.3518 	    3.0000 	   44.0000 	   55.6967
    0.5722 	   34.4338 	    3.0000 	   44.0000 	   56.0247
    0.5112 	   34.5135 	    3.0000 	   44.0000 	   56.3437
    0.5722 	   34.5995 	    3.0000 	   44.0000 	   56.6878
    0.4501 	   34.6870 	    3.0000 	   44.0000 	   57.0368
    0.6638 	   34.7718 	    3.0000 	   44.0000 	   57.3768
    0.6332 	   34.8565 	    3.0000 	   44.0000 	   57.7158
    0.4959 	   34.9415 	    3.0000 	   44.0000 	   58.0548
    0.5417 	   35.0235 	    3.0000 	   44.0000 	   58.3829
    0.5264 	   35.1063 	    3.0000 	   44.0000 	   58.7139
    0.6180 	   35.1915 	    3.0000 	   44.0000 	   59.0549
    0.7553 	   35.2743 	    3.0000 	   44.0000 	   59.3859
    0.5722 	   35.3628 	    3.0000 	   44.0000 	   59.7399
    0.6790 	   35.4475 	    3.0000 	   45.0000 	    0.0789
    0.5722 	   35.5328 	    3.0000 	   45.0000 	    0.4200
    0.5112 	   35.6165 	    3.0000 	   45.0000 	    0.7550
    0.4807 	   35.6998 	    3.0000 	   45.0000 	    1.0880
    0.5417 	   35.7812 	    3.0000 	   45.0000 	    1.4140
    0.5722 	   35.8658 	    3.0000 	   45.0000 	    1.7520
    0.5417 	   35.9520 	    3.0000 	   45.0000 	    2.0971
    0.3891 	   36.0385 	    3.0000 	   45.0000 	    2.4431
    0.4196 	   36.1205 	    3.0000 	   45.0000 	    2.7711
    0.3433 	   36.2035 	    3.0000 	   45.0000 	    3.1031
    0.5570 	   36.2880 	    3.0000 	   45.0000 	    3.4411
    0.4959 	   36.3708 	    3.0000 	   45.0000 	    3.7722
    0.6332 	   36.4543 	    3.0000 	   45.0000 	    4.1062
    0.6485 	   36.5388 	    3.0000 	   45.0000 	    4.4442
    0.4501 	   36.6265 	    3.0000 	   45.0000 	    4.7952
    0.5417 	   36.7135 	    3.0000 	   45.0000 	    5.1432
    0.1755 	   36.8005 	    3.0000 	   45.0000 	    5.4913
    0.2060 	   36.8833 	    3.0000 	   45.0000 	    5.8223
    0.4501 	   36.9670 	    3.0000 	   45.0000 	    6.1573
    0.5112 	   37.0520 	    3.0000 	   45.0000 	    6.4973
    0.2213 	   37.1338 	    3.0000 	   45.0000 	    6.8243
    0.3891 	   37.2178 	    3.0000 	   45.0000 	    7.1604
    0.3738 	   37.3070 	    3.0000 	   45.0000 	    7.5174
    0.3281 	   37.3975 	    3.0000 	   45.0000 	    7.8794
    0.4044 	   37.4835 	    3.0000 	   45.0000 	    8.2234
    0.3738 	   37.5700 	    3.0000 	   45.0000 	    8.5694
    0.4501 	   37.6583 	    3.0000 	   45.0000 	    8.9225
    0.1297 	   37.7438 	    3.0000 	   45.0000 	    9.2645
    0.4196 	   37.8320 	    3.0000 	   45.0000 	    9.6175
    0.4501 	   37.9208 	    3.0000 	   45.0000 	    9.9725
    0.3586 	   38.0110 	    3.0000 	   45.0000 	   10.3335
    0.4196 	   38.0978 	    3.0000 	   45.0000 	   10.6806
    0.4654 	   38.1890 	    3.0000 	   45.0000 	   11.0456
    0.5264 	   38.2770 	    3.0000 	   45.0000 	   11.3976
    0.5417 	   38.3625 	    3.0000 	   45.0000 	   11.7396
    0.1755 	   38.4533 	    3.0000 	   45.0000 	   12.1026
    0.4349 	   38.5415 	    3.0000 	   45.0000 	   12.4557
    0.4654 	   38.6278 	    3.0000 	   45.0000 	   12.8007
    0.4501 	   38.7185 	    3.0000 	   45.0000 	   13.1637
    0.5112 	   38.8095 	    3.0000 	   45.0000 	   13.5277
    0.1450 	   38.8978 	    3.0000 	   45.0000 	   13.8807
    0.4501 	   38.9893 	    3.0000 	   45.0000 	   14.2468
    0.4196 	   39.0770 	    3.0000 	   45.0000 	   14.5978
    0.6180 	   39.1650 	    3.0000 	   45.0000 	   14.9498
    0.4349 	   39.2580 	    3.0000 	   45.0000 	   15.3208
    0.4959 	   39.3458 	    3.0000 	   45.0000 	   15.6718
    0.3433 	   39.4333 	    3.0000 	   45.0000 	   16.0219
    0.4501 	   39.5240 	    3.0000 	   45.0000 	   16.3849
    0.5875 	   39.6108 	    3.0000 	   45.0000 	   16.7319
    0.4807 	   39.7023 	    3.0000 	   45.0000 	   17.0979
    0.3738 	   39.7910 	    3.0000 	   45.0000 	   17.4529
    0.3891 	   39.8763 	    3.0000 	   45.0000 	   17.7940
    0.4349 	   39.9685 	    3.0000 	   45.0000 	   18.1630
    0.4196 	   40.0615 	    3.0000 	   45.0000 	   18.5350
    0.3433 	   40.1540 	    3.0000 	   45.0000 	   18.9050
    0.3891 	   40.2445 	    3.0000 	   45.0000 	   19.2670
    0.3128 	   40.3325 	    3.0000 	   45.0000 	   19.6191
    0.4349 	   40.4195 	    3.0000 	   45.0000 	   19.9671
    0.4044 	   40.5105 	    3.0000 	   45.0000 	   20.3311
    0.3281 	   40.5993 	    3.0000 	   45.0000 	   20.6861
    0.4044 	   40.6885 	    3.0000 	   45.0000 	   21.0431
    0.3433 	   40.7795 	    3.0000 	   45.0000 	   21.4072
    0.4044 	   40.8660 	    3.0000 	   45.0000 	   21.7532
    0.4044 	   40.9560 	    3.0000 	   45.0000 	   22.1132
    0.4654 	   41.0495 	    3.0000 	   45.0000 	   22.4872
    0.1450 	   41.1375 	    3.0000 	   45.0000 	   22.8393
    0.4349 	   41.2298 	    3.0000 	   45.0000 	   23.2083
    0.2976 	   41.3183 	    3.0000 	   45.0000 	   23.5623
    0.3891 	   41.4038 	    3.0000 	   45.0000 	   23.9043
    0.3586 	   41.4973 	    3.0000 	   45.0000 	   24.2783
    0.4196 	   41.5873 	    3.0000 	   45.0000 	   24.6384
    0.3128 	   41.6750 	    3.0000 	   45.0000 	   24.9894
    0.3128 	   41.7685 	    3.0000 	   45.0000 	   25.3634
    0.4959 	   41.8555 	    3.0000 	   45.0000 	   25.7114
    0.3128 	   41.9455 	    3.0000 	   45.0000 	   26.0714
    0.3738 	   42.0370 	    3.0000 	   45.0000 	   26.4375
    0.3586 	   42.1278 	    3.0000 	   45.0000 	   26.8005
    0.4807 	   42.2228 	    3.0000 	   45.0000 	   27.1805
    0.5722 	   42.3115 	    3.0000 	   45.0000 	   27.5355
    0.3128 	   42.3993 	    3.0000 	   45.0000 	   27.8865
    0.4501 	   42.4940 	    3.0000 	   45.0000 	   28.2656
    0.4501 	   42.5830 	    3.0000 	   45.0000 	   28.6216
    0.3586 	   42.6725 	    3.0000 	   45.0000 	   28.9796
    0.3586 	   42.7665 	    3.0000 	   45.0000 	   29.3556
    0.3586 	   42.8588 	    3.0000 	   45.0000 	   29.7246
    0.3586 	   42.9495 	    3.0000 	   45.0000 	   30.0877
    0.3433 	   43.0433 	    3.0000 	   45.0000 	   30.4627
    0.3586 	   43.1330 	    3.0000 	   45.0000 	   30.8217
    0.4959 	   43.2285 	    3.0000 	   45.0000 	   31.2037
    0.4044 	   43.3213 	    3.0000 	   45.0000 	   31.5748
    0.3433 	   43.4113 	    3.0000 	   45.0000 	   31.9348
    0.4349 	   43.5070 	    3.0000 	   45.0000 	   32.3178
    0.2365 	   43.6013 	    3.0000 	   45.0000 	   32.6948
    0.2976 	   43.6935 	    3.0000 	   45.0000 	   33.0628
    0.4501 	   43.7885 	    3.0000 	   45.0000 	   33.4429
    0.3281 	   43.8800 	    3.0000 	   45.0000 	   33.8089
    0.4044 	   43.9740 	    3.0000 	   45.0000 	   34.1849
    0.2213 	   44.0663 	    3.0000 	   45.0000 	   34.5539
    0.4044 	   44.1573 	    3.0000 	   45.0000 	   34.9179
    0.2976 	   44.2535 	    3.0000 	   45.0000 	   35.3030
    0.3891 	   44.3453 	    3.0000 	   45.0000 	   35.6700
    0.3128 	   44.4343 	    3.0000 	   45.0000 	   36.0260
    0.2976 	   44.5288 	    3.0000 	   45.0000 	   36.4040
    0.3738 	   44.6243 	    3.0000 	   45.0000 	   36.7860
    0.4044 	   44.7180 	    3.0000 	   45.0000 	   37.1611
    0.1755 	   44.8145 	    3.0000 	   45.0000 	   37.5471
    0.2976 	   44.9080 	    3.0000 	   45.0000 	   37.9211
    0.4349 	   45.0030 	    3.0000 	   45.0000 	   38.3011
    0.3433 	   45.0943 	    3.0000 	   45.0000 	   38.6662
    0.3586 	   45.1873 	    3.0000 	   45.0000 	   39.0382
    0.2670 	   45.2863 	    3.0000 	   45.0000 	   39.4342
    0.3586 	   45.3780 	    3.0000 	   45.0000 	   39.8012
    0.2976 	   45.4720 	    3.0000 	   45.0000 	   40.1772
    0.3281 	   45.5663 	    3.0000 	   45.0000 	   40.5543
    0.4044 	   45.6633 	    3.0000 	   45.0000 	   40.9423
    0.3738 	   45.7615 	    3.0000 	   45.0000 	   41.3353
    0.4959 	   45.8545 	    3.0000 	   45.0000 	   41.7073
    0.2060 	   45.9490 	    3.0000 	   45.0000 	   42.0854
    0.5264 	   46.0458 	    3.0000 	   45.0000 	   42.4724
    0.3281 	   46.1380 	    3.0000 	   45.0000 	   42.8414
    0.1297 	   46.2358 	    3.0000 	   45.0000 	   43.2324
    0.3433 	   46.3290 	    3.0000 	   45.0000 	   43.6054
    0.3281 	   46.4238 	    3.0000 	   45.0000 	   43.9845
    0.2365 	   46.5208 	    3.0000 	   45.0000 	   44.3725
    0.4196 	   46.6125 	    3.0000 	   45.0000 	   44.7395
    0.3586 	   46.7095 	    3.0000 	   45.0000 	   45.1275
    0.0839 	   46.8043 	    3.0000 	   45.0000 	   45.5065
    0.1602 	   46.8960 	    3.0000 	   45.0000 	   45.8736
    0.1450 	   46.9908 	    3.0000 	   45.0000 	   46.2526
    0.3433 	   47.0848 	    3.0000 	   45.0000 	   46.6286
    0.4349 	   47.1765 	    3.0000 	   45.0000 	   46.9956
    0.3586 	   47.2740 	    3.0000 	   45.0000 	   47.3857
    0.2518 	   47.3665 	    3.0000 	   45.0000 	   47.7557
    0.2518 	   47.4640 	    3.0000 	   45.0000 	   48.1457
    0.2518 	   47.5593 	    3.0000 	   45.0000 	   48.5267
    0.2976 	   47.6525 	    3.0000 	   45.0000 	   48.8997
    0.2670 	   47.7490 	    3.0000 	   45.0000 	   49.2858
    0.1755 	   47.8413 	    3.0000 	   45.0000 	   49.6548
    0.3281 	   47.9360 	    3.0000 	   45.0000 	   50.0338
    0.2976 	   48.0350 	    3.0000 	   45.0000 	   50.4288
    0.2518 	   48.1298 	    3.0000 	   45.0000 	   50.8078
    0.2213 	   48.2280 	    3.0000 	   45.0000 	   51.2009
    0.2823 	   48.3223 	    3.0000 	   45.0000 	   51.5779
    0.2976 	   48.4158 	    3.0000 	   45.0000 	   51.9519
    0.2823 	   48.5173 	    3.0000 	   45.0000 	   52.3579
    0.2518 	   48.6133 	    3.0000 	   45.0000 	   52.7420
    0.2365 	   48.7128 	    3.0000 	   45.0000 	   53.1400
    0.4501 	   48.8098 	    3.0000 	   45.0000 	   53.5280
    0.2976 	   48.9025 	    3.0000 	   45.0000 	   53.8990
    0.2823 	   49.0025 	    3.0000 	   45.0000 	   54.2990
    0.0381 	   49.0975 	    3.0000 	   45.0000 	   54.6791
    0.1907 	   49.1928 	    3.0000 	   45.0000 	   55.0601
    0.3586 	   49.2913 	    3.0000 	   45.0000 	   55.4541
    0.2213 	   49.3838 	    3.0000 	   45.0000 	   55.8241
    0.2518 	   49.4818 	    3.0000 	   45.0000 	   56.2162
    0.4501 	   49.5765 	    3.0000 	   45.0000 	   56.5952
    0.2518 	   49.6713 	    3.0000 	   45.0000 	   56.9742
    0.2213 	   49.7690 	    3.0000 	   45.0000 	   57.3652
    0.3281 	   49.8613 	    3.0000 	   45.0000 	   57.7342
    0.2365 	   49.9565 	    3.0000 	   45.0000 	   58.1153
    0.2823 	   50.0520 	    3.0000 	   45.0000 	   58.4973
    0.2518 	   50.1448 	    3.0000 	   45.0000 	   58.8683
    0.2518 	   50.2450 	    3.0000 	   45.0000 	   59.2693
    0.1907 	   50.3415 	    3.0000 	   45.0000 	   59.6554
    0.1755 	   50.4355 	    3.0000 	   46.0000 	    0.0314
    0.2060 	   50.5365 	    3.0000 	   46.0000 	    0.4354
    0.3738 	   50.6333 	    3.0000 	   46.0000 	    0.8224
    0.1907 	   50.7318 	    3.0000 	   46.0000 	    1.2164
    0.3128 	   50.8268 	    3.0000 	   46.0000 	    1.5965
    0.1755 	   50.9250 	    3.0000 	   46.0000 	    1.9895
    0.2823 	   51.0263 	    3.0000 	   46.0000 	    2.3945
    0.4349 	   51.1213 	    3.0000 	   46.0000 	    2.7745
    0.2213 	   51.2178 	    3.0000 	   46.0000 	    3.1606
    0.3128 	   51.3168 	    3.0000 	   46.0000 	    3.5566
    0.1755 	   51.4155 	    3.0000 	   46.0000 	    3.9516
    0.2518 	   51.5158 	    3.0000 	   46.0000 	    4.3526
    0.2518 	   51.6123 	    3.0000 	   46.0000 	    4.7386
    0.3281 	   51.7108 	    3.0000 	   46.0000 	    5.1327
    0.2213 	   51.8098 	    3.0000 	   46.0000 	    5.5287
    0.2670 	   51.9045 	    3.0000 	   46.0000 	    5.9077
    0.3586 	   52.0060 	    3.0000 	   46.0000 	    6.3137
    0.1450 	   52.1040 	    3.0000 	   46.0000 	    6.7058
    0.2518 	   52.2025 	    3.0000 	   46.0000 	    7.0998
    0.0534 	   52.3013 	    3.0000 	   46.0000 	    7.4948
    0.2365 	   52.3998 	    3.0000 	   46.0000 	    7.8878
    0.1755 	   52.4998 	    3.0000 	   46.0000 	    8.2879
    0.2670 	   52.5958 	    3.0000 	   46.0000 	    8.6719
    0.0687 	   52.6923 	    3.0000 	   46.0000 	    9.0579
    0.2823 	   52.7953 	    3.0000 	   46.0000 	    9.4699
    0.2060 	   52.8943 	    3.0000 	   46.0000 	    9.8659
    0.1907 	   52.9953 	    3.0000 	   46.0000 	   10.2700
    0.1602 	   53.0923 	    3.0000 	   46.0000 	   10.6580
    0.1144 	   53.1870 	    3.0000 	   46.0000 	   11.0370
    0.2518 	   53.2893 	    3.0000 	   46.0000 	   11.4460
    0.3128 	   53.3843 	    3.0000 	   46.0000 	   11.8261
    0.2518 	   53.4873 	    3.0000 	   46.0000 	   12.2381
    0.1755 	   53.5863 	    3.0000 	   46.0000 	   12.6341
    0.1755 	   53.6835 	    3.0000 	   46.0000 	   13.0231
    0.1907 	   53.7923 	    3.0000 	   46.0000 	   13.4581
    0.2976 	   53.8913 	    3.0000 	   46.0000 	   13.8542
    0.1297 	   53.9948 	    3.0000 	   46.0000 	   14.2682
    0.2365 	   54.0960 	    3.0000 	   46.0000 	   14.6732
    0.2976 	   54.1953 	    3.0000 	   46.0000 	   15.0702
    0.1144 	   54.2965 	    3.0000 	   46.0000 	   15.4753
    0.1907 	   54.3948 	    3.0000 	   46.0000 	   15.8683
    0.2365 	   54.4965 	    3.0000 	   46.0000 	   16.2753
    0.1907 	   54.5953 	    3.0000 	   46.0000 	   16.6703
    0.2213 	   54.6948 	    3.0000 	   46.0000 	   17.0684
    0.0839 	   54.7973 	    3.0000 	   46.0000 	   17.4784
    0.1602 	   54.8965 	    3.0000 	   46.0000 	   17.8754
    0.1755 	   54.9985 	    3.0000 	   46.0000 	   18.2834
    0.2976 	   55.1005 	    3.0000 	   46.0000 	   18.6914
    0.1755 	   55.1983 	    3.0000 	   46.0000 	   19.0825
    0.2365 	   55.2988 	    3.0000 	   46.0000 	   19.4845
    0.1755 	   55.3968 	    3.0000 	   46.0000 	   19.8765
    0.1755 	   55.4998 	    3.0000 	   46.0000 	   20.2885
    0.1144 	   55.5990 	    3.0000 	   46.0000 	   20.6856
    0.0534 	   55.7000 	    3.0000 	   46.0000 	   21.0896
    0.1907 	   55.8040 	    3.0000 	   46.0000 	   21.5056
    0.0229 	   55.9048 	    3.0000 	   46.0000 	   21.9086
    0.1755 	   56.0095 	    3.0000 	   46.0000 	   22.3277
    0.2060 	   56.1115 	    3.0000 	   46.0000 	   22.7357
    0.1144 	   56.2130 	    3.0000 	   46.0000 	   23.1417
    0.2060 	   56.3140 	    3.0000 	   46.0000 	   23.5457
    0.2518 	   56.4135 	    3.0000 	   46.0000 	   23.9437
    0.1144 	   56.5175 	    3.0000 	   46.0000 	   24.3598
    0.1144 	   56.6183 	    3.0000 	   46.0000 	   24.7628
    0.1450 	   56.7185 	    3.0000 	   46.0000 	   25.1638
    0.2518 	   56.8238 	    3.0000 	   46.0000 	   25.5838
    0.1297 	   56.9253 	    3.0000 	   46.0000 	   25.9899
    0.2518 	   57.0308 	    3.0000 	   46.0000 	   26.4119
    0.1144 	   57.1343 	    3.0000 	   46.0000 	   26.8259
    0.1450 	   57.2420 	    3.0000 	   46.0000 	   27.2569
    0.1755 	   57.3435 	    3.0000 	   46.0000 	   27.6630
    0.1144 	   57.4435 	    3.0000 	   46.0000 	   28.0630
    0.0839 	   57.5463 	    3.0000 	   46.0000 	   28.4730
   -0.0687 	   57.6455 	    3.0000 	   46.0000 	   28.8710
    0.3738 	   57.7470 	    3.0000 	   46.0000 	   29.2771
    0.1755 	   57.8465 	    3.0000 	   46.0000 	   29.6751
    0.0381 	   57.9463 	    3.0000 	   46.0000 	   30.0741
    0.0381 	   58.0538 	    3.0000 	   46.0000 	   30.5041
    0.1602 	   58.1550 	    3.0000 	   46.0000 	   30.9091
    0.0839 	   58.2583 	    3.0000 	   46.0000 	   31.3222
    0.2976 	   58.3568 	    3.0000 	   46.0000 	   31.7162
    0.1450 	   58.4590 	    3.0000 	   46.0000 	   32.1252
    0.2213 	   58.5633 	    3.0000 	   46.0000 	   32.5422
    0.1907 	   58.6655 	    3.0000 	   46.0000 	   32.9513
    0.0381 	   58.7700 	    3.0000 	   46.0000 	   33.3683
    0.1450 	   58.8710 	    3.0000 	   46.0000 	   33.7733
    0.2060 	   58.9745 	    3.0000 	   46.0000 	   34.1873
    0.2365 	   59.0778 	    3.0000 	   46.0000 	   34.6004
    0.2213 	   59.1780 	    3.0000 	   46.0000 	   35.0014
    0.1297 	   59.2795 	    3.0000 	   46.0000 	   35.4074
    0.1144 	   59.3765 	    3.0000 	   46.0000 	   35.7954
   -0.1144 	   59.4753 	    3.0000 	   46.0000 	   36.1904
    0.1297 	   59.5728 	    3.0000 	   46.0000 	   36.5805
    0.1144 	   59.6700 	    3.0000 	   46.0000 	   36.9685
    0.2976 	   59.7708 	    3.0000 	   46.0000 	   37.3725
    0.1907 	   59.8673 	    3.0000 	   46.0000 	   37.7585
    0.3128 	   59.9640 	    3.0000 	   46.0000 	   38.1456
    0.0687 	   60.0645 	    3.0000 	   46.0000 	   38.5476
   -0.0992 	   60.1640 	    3.0000 	   46.0000 	   38.9456
    0.0992 	   60.2670 	    3.0000 	   46.0000 	   39.3576
    0.1450 	   60.3640 	    3.0000 	   46.0000 	   39.7457
    0.1144 	   60.4618 	    3.0000 	   46.0000 	   40.1367
    0.1297 	   60.5608 	    3.0000 	   46.0000 	   40.5327
    0.1297 	   60.5903 	    3.0000 	   46.0000 	   40.6507