File: instron/fabric_1W15L_drag30_spd15_nonstop.txt
Thayer School of Engineering        Instron 4442 Mechanical Testing System
6/28/2018 4:10:30 AM

  Force (N)	Extension (mm)	Not Used	Not Used	Not Used	     Hour	    Minute	    Second
    0.0992 	    0.2548 	    4.0000 	   11.0000 	    0.5762
   -0.1450 	    0.3463 	    4.0000 	   11.0000 	    0.9422
    0.1297 	    0.4340 	    4.0000 	   11.0000 	    1.2932
   -0.1602 	    0.5230 	    4.0000 	   11.0000 	    1.6493
    0.1602 	    0.6080 	    4.0000 	   11.0000 	    1.9893
    0.2060 	    0.6848 	    4.0000 	   11.0000 	    2.2963
    0.2976 	    0.7768 	    4.0000 	   11.0000 	    2.6643
    0.2213 	    0.8388 	    4.0000 	   11.0000 	    2.9123
    0.1450 	    0.8955 	    4.0000 	   11.0000 	    3.1394
    0.0687 	    0.9523 	    4.0000 	   11.0000 	    3.3664
   -0.0839 	    1.0050 	    4.0000 	   11.0000 	    3.5774
    0.2060 	    1.0642 	    4.0000 	   11.0000 	    3.8144
    0.0992 	    1.1205 	    4.0000 	   11.0000 	    4.0394
    0.0992 	    1.1753 	    4.0000 	   11.0000 	    4.2584
    0.0992 	    1.2248 	    4.0000 	   11.0000 	    4.4564
    0.1450 	    1.2710 	    4.0000 	   11.0000 	    4.6414
    0.1450 	    1.3245 	    4.0000 	   11.0000 	    4.8554
    0.1755 	    1.3798 	    4.0000 	   11.0000 	    5.0765
    0.1297 	    1.4335 	    4.0000 	   11.0000 	    5.2915
    0.2823 	    1.4883 	    4.0000 	   11.0000 	    5.5105
    0.2213 	    1.5395 	    4.0000 	   11.0000 	    5.7155
    0.2060 	    1.5950 	    4.0000 	   11.0000 	    5.9375
    0.0687 	    1.6505 	    4.0000 	   11.0000 	    6.1595
    0.2518 	    1.7048 	    4.0000 	   11.0000 	    6.3765
    0.2060 	    1.7555 	    4.0000 	   11.0000 	    6.5795
    0.2060 	    1.8023 	    4.0000 	   11.0000 	    6.7666
    0.2365 	    1.8545 	    4.0000 	   11.0000 	    6.9756
    0.0992 	    1.9123 	    4.0000 	   11.0000 	    7.2066
    0.2060 	    1.9680 	    4.0000 	   11.0000 	    7.4296
    0.2060 	    2.0155 	    4.0000 	   11.0000 	    7.6196
    0.2518 	    2.0628 	    4.0000 	   11.0000 	    7.8086
    0.0687 	    2.1180 	    4.0000 	   11.0000 	    8.0296
    0.3281 	    2.1753 	    4.0000 	   11.0000 	    8.2586
    0.2670 	    2.2285 	    4.0000 	   11.0000 	    8.4717
    0.2060 	    2.2778 	    4.0000 	   11.0000 	    8.6687
    0.1297 	    2.3338 	    4.0000 	   11.0000 	    8.8927
    0.2060 	    2.3915 	    4.0000 	   11.0000 	    9.1237
    0.1297 	    2.4468 	    4.0000 	   11.0000 	    9.3447
    0.1907 	    2.4993 	    4.0000 	   11.0000 	    9.5547
    0.1907 	    2.5475 	    4.0000 	   11.0000 	    9.7477
    0.1907 	    2.5970 	    4.0000 	   11.0000 	    9.9457
    0.1297 	    2.6543 	    4.0000 	   11.0000 	   10.1748
    0.3128 	    2.7118 	    4.0000 	   11.0000 	   10.4048
    0.2518 	    2.7615 	    4.0000 	   11.0000 	   10.6038
    0.1602 	    2.8128 	    4.0000 	   11.0000 	   10.8088
    0.2365 	    2.8723 	    4.0000 	   11.0000 	   11.0468
    0.1144 	    2.9298 	    4.0000 	   11.0000 	   11.2768
    0.1907 	    2.9843 	    4.0000 	   11.0000 	   11.4948
    0.1907 	    3.0333 	    4.0000 	   11.0000 	   11.6908
    0.2518 	    3.0893 	    4.0000 	   11.0000 	   11.9149
    0.1602 	    3.1423 	    4.0000 	   11.0000 	   12.1269
    0.1602 	    3.1978 	    4.0000 	   11.0000 	   12.3489
    0.1907 	    3.2518 	    4.0000 	   11.0000 	   12.5649
    0.1297 	    3.2995 	    4.0000 	   11.0000 	   12.7559
    0.3891 	    3.3550 	    4.0000 	   11.0000 	   12.9769
    0.1602 	    3.4123 	    4.0000 	   11.0000 	   13.2059
    0.1602 	    3.4700 	    4.0000 	   11.0000 	   13.4369
    0.1297 	    3.5208 	    4.0000 	   11.0000 	   13.6400
    0.2823 	    3.5700 	    4.0000 	   11.0000 	   13.8370
    0.0992 	    3.6255 	    4.0000 	   11.0000 	   14.0590
    0.1907 	    3.6793 	    4.0000 	   11.0000 	   14.2740
    0.1907 	    3.7370 	    4.0000 	   11.0000 	   14.5050
    0.2670 	    3.7863 	    4.0000 	   11.0000 	   14.7020
    0.3433 	    3.8423 	    4.0000 	   11.0000 	   14.9260
    0.1602 	    3.9010 	    4.0000 	   11.0000 	   15.1610
    0.2976 	    3.9598 	    4.0000 	   11.0000 	   15.3961
    0.2365 	    4.0138 	    4.0000 	   11.0000 	   15.6121
    0.2823 	    4.0635 	    4.0000 	   11.0000 	   15.8111
    0.0992 	    4.1190 	    4.0000 	   11.0000 	   16.0331
    0.2823 	    4.1688 	    4.0000 	   11.0000 	   16.2321
    0.1450 	    4.2213 	    4.0000 	   11.0000 	   16.4421
    0.0992 	    4.2745 	    4.0000 	   11.0000 	   16.6551
    0.2060 	    4.3270 	    4.0000 	   11.0000 	   16.8651
    0.2670 	    4.3815 	    4.0000 	   11.0000 	   17.0831
    0.1907 	    4.4400 	    4.0000 	   11.0000 	   17.3172
    0.1602 	    4.4973 	    4.0000 	   11.0000 	   17.5462
    0.1755 	    4.5488 	    4.0000 	   11.0000 	   17.7522
    0.1755 	    4.6035 	    4.0000 	   11.0000 	   17.9712
    0.2213 	    4.6638 	    4.0000 	   11.0000 	   18.2122
    0.2518 	    4.7240 	    4.0000 	   11.0000 	   18.4532
    0.2060 	    4.7775 	    4.0000 	   11.0000 	   18.6672
    0.2670 	    4.8293 	    4.0000 	   11.0000 	   18.8743
    0.0839 	    4.8910 	    4.0000 	   11.0000 	   19.1213
    0.1602 	    4.9520 	    4.0000 	   11.0000 	   19.3653
    0.2060 	    5.0098 	    4.0000 	   11.0000 	   19.5963
    0.1755 	    5.0658 	    4.0000 	   11.0000 	   19.8203
    0.0534 	    5.1230 	    4.0000 	   11.0000 	   20.0493
    0.2060 	    5.1783 	    4.0000 	   11.0000 	   20.2703
    0.0534 	    5.2385 	    4.0000 	   11.0000 	   20.5113
    0.2670 	    5.2915 	    4.0000 	   11.0000 	   20.7234
    0.1755 	    5.3450 	    4.0000 	   11.0000 	   20.9374
   -0.0381 	    5.3975 	    4.0000 	   11.0000 	   21.1474
    0.2823 	    5.4573 	    4.0000 	   11.0000 	   21.3864
    0.3891 	    5.5135 	    4.0000 	   11.0000 	   21.6114
    0.2060 	    5.5673 	    4.0000 	   11.0000 	   21.8264
    0.1297 	    5.6275 	    4.0000 	   11.0000 	   22.0674
    0.2060 	    5.6888 	    4.0000 	   11.0000 	   22.3124
    0.2823 	    5.7483 	    4.0000 	   11.0000 	   22.5505
    0.1907 	    5.8028 	    4.0000 	   11.0000 	   22.7685
    0.2518 	    5.8648 	    4.0000 	   11.0000 	   23.0165
    0.2060 	    5.9270 	    4.0000 	   11.0000 	   23.2655
    0.3128 	    5.9878 	    4.0000 	   11.0000 	   23.5085
    0.2213 	    6.0448 	    4.0000 	   11.0000 	   23.7365
    0.1755 	    6.0983 	    4.0000 	   11.0000 	   23.9505
    0.2670 	    6.1603 	    4.0000 	   11.0000 	   24.1986
    0.2060 	    6.2210 	    4.0000 	   11.0000 	   24.4416
    0.2213 	    6.2788 	    4.0000 	   11.0000 	   24.6726
    0.2365 	    6.3350 	    4.0000 	   11.0000 	   24.8976
    0.1907 	    6.3978 	    4.0000 	   11.0000 	   25.1486
    0.1602 	    6.4623 	    4.0000 	   11.0000 	   25.4066
    0.2213 	    6.5218 	    4.0000 	   11.0000 	   25.6446
    0.2823 	    6.5778 	    4.0000 	   11.0000 	   25.8687
    0.2518 	    6.6405 	    4.0000 	   11.0000 	   26.1197
    0.0687 	    6.7040 	    4.0000 	   11.0000 	   26.3737
    0.2823 	    6.7643 	    4.0000 	   11.0000 	   26.6147
    0.2976 	    6.8218 	    4.0000 	   11.0000 	   26.8447
    0.1602 	    6.8855 	    4.0000 	   11.0000 	   27.0997
    0.0839 	    6.9490 	    4.0000 	   11.0000 	   27.3537
    0.0381 	    7.0090 	    4.0000 	   11.0000 	   27.5937
    0.2365 	    7.0658 	    4.0000 	   11.0000 	   27.8208
    0.1755 	    7.1280 	    4.0000 	   11.0000 	   28.0698
    0.3586 	    7.1915 	    4.0000 	   11.0000 	   28.3238
    0.1602 	    7.2550 	    4.0000 	   11.0000 	   28.5778
    0.1755 	    7.3123 	    4.0000 	   11.0000 	   28.8068
    0.2823 	    7.3755 	    4.0000 	   11.0000 	   29.0598
    0.2365 	    7.4403 	    4.0000 	   11.0000 	   29.3188
    0.1602 	    7.5023 	    4.0000 	   11.0000 	   29.5669
    0.2670 	    7.5588 	    4.0000 	   11.0000 	   29.7929
    0.1450 	    7.6170 	    4.0000 	   11.0000 	   30.0259
    0.1450 	    7.6828 	    4.0000 	   11.0000 	   30.2879
    0.1450 	    7.7473 	    4.0000 	   11.0000 	   30.5459
    0.3128 	    7.8055 	    4.0000 	   11.0000 	   30.7789
    0.2365 	    7.8670 	    4.0000 	   11.0000 	   31.0249
    0.3891 	    7.9275 	    4.0000 	   11.0000 	   31.2670
    0.2670 	    7.9890 	    4.0000 	   11.0000 	   31.5130
    0.1907 	    8.0485 	    4.0000 	   11.0000 	   31.7510
    0.2213 	    8.1058 	    4.0000 	   11.0000 	   31.9800
    0.2518 	    8.1705 	    4.0000 	   11.0000 	   32.2390
   -0.0534 	    8.2358 	    4.0000 	   11.0000 	   32.5000
    0.2365 	    8.2983 	    4.0000 	   11.0000 	   32.7500
    0.2670 	    8.3612 	    4.0000 	   11.0000 	   33.0021
    0.2365 	    8.4290 	    4.0000 	   11.0000 	   33.2731
    0.2823 	    8.4945 	    4.0000 	   11.0000 	   33.5351
    0.2365 	    8.5540 	    4.0000 	   11.0000 	   33.7731
    0.2976 	    8.6163 	    4.0000 	   11.0000 	   34.0221
    0.2976 	    8.6838 	    4.0000 	   11.0000 	   34.2921
    0.2518 	    8.7498 	    4.0000 	   11.0000 	   34.5561
    0.3433 	    8.8103 	    4.0000 	   11.0000 	   34.7982
    0.4044 	    8.8713 	    4.0000 	   11.0000 	   35.0422
    0.2518 	    8.9375 	    4.0000 	   11.0000 	   35.3072
    0.2670 	    8.9990 	    4.0000 	   11.0000 	   35.5532
    0.2518 	    9.0605 	    4.0000 	   11.0000 	   35.7992
    0.1755 	    9.1243 	    4.0000 	   11.0000 	   36.0542
    0.2823 	    9.1850 	    4.0000 	   11.0000 	   36.2972
    0.2518 	    9.2493 	    4.0000 	   11.0000 	   36.5543
    0.2518 	    9.3108 	    4.0000 	   11.0000 	   36.8003
    0.2670 	    9.3730 	    4.0000 	   11.0000 	   37.0493
    0.2365 	    9.4408 	    4.0000 	   11.0000 	   37.3203
    0.2365 	    9.5075 	    4.0000 	   11.0000 	   37.5873
    0.2518 	    9.5680 	    4.0000 	   11.0000 	   37.8293
    0.3281 	    9.6343 	    4.0000 	   11.0000 	   38.0944
    0.2060 	    9.6963 	    4.0000 	   11.0000 	   38.3424
    0.3128 	    9.7588 	    4.0000 	   11.0000 	   38.5924
    0.2976 	    9.8205 	    4.0000 	   11.0000 	   38.8394
    0.3128 	    9.8863 	    4.0000 	   11.0000 	   39.1024
    0.2823 	    9.9540 	    4.0000 	   11.0000 	   39.3734
    0.1450 	   10.0213 	    4.0000 	   11.0000 	   39.6424
    0.1297 	   10.0838 	    4.0000 	   11.0000 	   39.8925
    0.1602 	   10.1528 	    4.0000 	   11.0000 	   40.1685
    0.2670 	   10.2213 	    4.0000 	   11.0000 	   40.4425
    0.2365 	   10.2850 	    4.0000 	   11.0000 	   40.6975
    0.2976 	   10.3450 	    4.0000 	   11.0000 	   40.9375
    0.0992 	   10.4093 	    4.0000 	   11.0000 	   41.1945
    0.3433 	   10.4733 	    4.0000 	   11.0000 	   41.4505
    0.2670 	   10.5353 	    4.0000 	   11.0000 	   41.6986
    0.0839 	   10.5990 	    4.0000 	   11.0000 	   41.9536
    0.3281 	   10.6630 	    4.0000 	   11.0000 	   42.2096
    0.1755 	   10.7328 	    4.0000 	   11.0000 	   42.4886
    0.1755 	   10.7985 	    4.0000 	   11.0000 	   42.7516
    0.2213 	   10.8620 	    4.0000 	   11.0000 	   43.0056
    0.3281 	   10.9328 	    4.0000 	   11.0000 	   43.2886
    0.2365 	   11.0038 	    4.0000 	   11.0000 	   43.5727
    0.1144 	   11.0678 	    4.0000 	   11.0000 	   43.8287
    0.2060 	   11.1358 	    4.0000 	   11.0000 	   44.1007
    0.2670 	   11.2043 	    4.0000 	   11.0000 	   44.3747
    0.3586 	   11.2745 	    4.0000 	   11.0000 	   44.6557
    0.2518 	   11.3388 	    4.0000 	   11.0000 	   44.9127
    0.2060 	   11.4075 	    4.0000 	   11.0000 	   45.1878
    0.1907 	   11.4763 	    4.0000 	   11.0000 	   45.4628
    0.3738 	   11.5403 	    4.0000 	   11.0000 	   45.7188
    0.3128 	   11.6080 	    4.0000 	   11.0000 	   45.9898
   -0.0992 	   11.6823 	    4.0000 	   11.0000 	   46.2868
    0.2823 	   11.7550 	    4.0000 	   11.0000 	   46.5778
    0.3128 	   11.8233 	    4.0000 	   11.0000 	   46.8509
    0.2823 	   11.8893 	    4.0000 	   11.0000 	   47.1149
    0.2518 	   11.9603 	    4.0000 	   11.0000 	   47.3989
    0.2060 	   12.0318 	    4.0000 	   11.0000 	   47.6849
    0.0381 	   12.0960 	    4.0000 	   11.0000 	   47.9409
    0.3128 	   12.1653 	    4.0000 	   11.0000 	   48.2179
    0.2670 	   12.2365 	    4.0000 	   11.0000 	   48.5029
    0.2976 	   12.3068 	    4.0000 	   11.0000 	   48.7840
    0.4349 	   12.3710 	    4.0000 	   11.0000 	   49.0410
    0.3738 	   12.4365 	    4.0000 	   11.0000 	   49.3030
    0.2670 	   12.5068 	    4.0000 	   11.0000 	   49.5840
    0.2823 	   12.5750 	    4.0000 	   11.0000 	   49.8570
    0.3738 	   12.6400 	    4.0000 	   11.0000 	   50.1170
    0.1602 	   12.7118 	    4.0000 	   11.0000 	   50.4041
    0.3281 	   12.7835 	    4.0000 	   11.0000 	   50.6911
    0.2823 	   12.8478 	    4.0000 	   11.0000 	   50.9481
    0.2976 	   12.9178 	    4.0000 	   11.0000 	   51.2281
    0.2976 	   12.9885 	    4.0000 	   11.0000 	   51.5111
    0.2823 	   13.0598 	    4.0000 	   11.0000 	   51.7961
    0.2518 	   13.1253 	    4.0000 	   11.0000 	   52.0582
    0.3891 	   13.1910 	    4.0000 	   11.0000 	   52.3212
    0.3433 	   13.2633 	    4.0000 	   11.0000 	   52.6102
    0.4196 	   13.3318 	    4.0000 	   11.0000 	   52.8842
    0.1755 	   13.4028 	    4.0000 	   11.0000 	   53.1682
    0.3281 	   13.4715 	    4.0000 	   11.0000 	   53.4422
    0.2365 	   13.5403 	    4.0000 	   11.0000 	   53.7182
    0.3891 	   13.6075 	    4.0000 	   11.0000 	   53.9873
    0.2823 	   13.6773 	    4.0000 	   11.0000 	   54.2663
    0.3281 	   13.7470 	    4.0000 	   11.0000 	   54.5453
    0.2518 	   13.8145 	    4.0000 	   11.0000 	   54.8153
    0.3433 	   13.8798 	    4.0000 	   11.0000 	   55.0763
    0.3433 	   13.9523 	    4.0000 	   11.0000 	   55.3663
    0.3738 	   14.0233 	    4.0000 	   11.0000 	   55.6504
    0.2976 	   14.0895 	    4.0000 	   11.0000 	   55.9154
    0.2060 	   14.1570 	    4.0000 	   11.0000 	   56.1854
    0.4501 	   14.2245 	    4.0000 	   11.0000 	   56.4554
   -0.0229 	   14.2935 	    4.0000 	   11.0000 	   56.7314
    0.1755 	   14.3608 	    4.0000 	   11.0000 	   57.0004
    0.2365 	   14.4345 	    4.0000 	   11.0000 	   57.2954
    0.4196 	   14.5055 	    4.0000 	   11.0000 	   57.5795
    0.2976 	   14.5733 	    4.0000 	   11.0000 	   57.8505
    0.3738 	   14.6435 	    4.0000 	   11.0000 	   58.1315
    0.3128 	   14.7175 	    4.0000 	   11.0000 	   58.4275
    0.2976 	   14.7908 	    4.0000 	   11.0000 	   58.7205
    0.4044 	   14.8588 	    4.0000 	   11.0000 	   58.9925
    0.3128 	   14.9318 	    4.0000 	   11.0000 	   59.2846
    0.2060 	   15.0053 	    4.0000 	   11.0000 	   59.5786
    0.3738 	   15.0768 	    4.0000 	   11.0000 	   59.8646
    0.2670 	   15.1458 	    4.0000 	   12.0000 	    0.1406
    0.3738 	   15.2210 	    4.0000 	   12.0000 	    0.4416
    0.4044 	   15.2963 	    4.0000 	   12.0000 	    0.7426
    0.2060 	   15.3650 	    4.0000 	   12.0000 	    1.0177
    0.1602 	   15.4400 	    4.0000 	   12.0000 	    1.3177
    0.2365 	   15.5085 	    4.0000 	   12.0000 	    1.5917
    0.4807 	   15.5775 	    4.0000 	   12.0000 	    1.8677
    0.2670 	   15.6463 	    4.0000 	   12.0000 	    2.1427
    0.4196 	   15.7143 	    4.0000 	   12.0000 	    2.4147
    0.3738 	   15.7838 	    4.0000 	   12.0000 	    2.6928
    0.2518 	   15.8515 	    4.0000 	   12.0000 	    2.9638
    0.3433 	   15.9235 	    4.0000 	   12.0000 	    3.2518
    0.3738 	   15.9918 	    4.0000 	   12.0000 	    3.5248
    0.3281 	   16.0610 	    4.0000 	   12.0000 	    3.8018
    0.1755 	   16.1280 	    4.0000 	   12.0000 	    4.0698
    0.2823 	   16.1995 	    4.0000 	   12.0000 	    4.3559
    0.2365 	   16.2688 	    4.0000 	   12.0000 	    4.6329
    0.2976 	   16.3405 	    4.0000 	   12.0000 	    4.9199
    0.3433 	   16.4108 	    4.0000 	   12.0000 	    5.2009
   -0.0076 	   16.4805 	    4.0000 	   12.0000 	    5.4789
    0.2365 	   16.5538 	    4.0000 	   12.0000 	    5.7719
    0.4044 	   16.6228 	    4.0000 	   12.0000 	    6.0479
    0.3586 	   16.6930 	    4.0000 	   12.0000 	    6.3290
    0.4196 	   16.7633 	    4.0000 	   12.0000 	    6.6100
    0.2213 	   16.8330 	    4.0000 	   12.0000 	    6.8890
    0.3586 	   16.9043 	    4.0000 	   12.0000 	    7.1740
    0.3586 	   16.9798 	    4.0000 	   12.0000 	    7.4760
    0.2670 	   17.0522 	    4.0000 	   12.0000 	    7.7660
    0.2365 	   17.1217 	    4.0000 	   12.0000 	    8.0441
    0.2213 	   17.1963 	    4.0000 	   12.0000 	    8.3421
    0.3281 	   17.2738 	    4.0000 	   12.0000 	    8.6521
    0.2823 	   17.3472 	    4.0000 	   12.0000 	    8.9461
    0.2976 	   17.4220 	    4.0000 	   12.0000 	    9.2451
    0.3738 	   17.4965 	    4.0000 	   12.0000 	    9.5431
    0.2823 	   17.5713 	    4.0000 	   12.0000 	    9.8422
    0.4196 	   17.6443 	    4.0000 	   12.0000 	   10.1342
    0.2518 	   17.7220 	    4.0000 	   12.0000 	   10.4452
    0.5722 	   17.7990 	    4.0000 	   12.0000 	   10.7532
    0.2365 	   17.8705 	    4.0000 	   12.0000 	   11.0392
    0.0534 	   17.9468 	    4.0000 	   12.0000 	   11.3443
    0.3738 	   18.0170 	    4.0000 	   12.0000 	   11.6253
    0.2518 	   18.0937 	    4.0000 	   12.0000 	   11.9323
    0.5112 	   18.1653 	    4.0000 	   12.0000 	   12.2183
    0.4501 	   18.2362 	    4.0000 	   12.0000 	   12.5023
    0.2823 	   18.3068 	    4.0000 	   12.0000 	   12.7843
    0.3128 	   18.3773 	    4.0000 	   12.0000 	   13.0664
    0.3891 	   18.4498 	    4.0000 	   12.0000 	   13.3564
    0.2518 	   18.5288 	    4.0000 	   12.0000 	   13.6724
    0.4501 	   18.6007 	    4.0000 	   12.0000 	   13.9604
    0.4044 	   18.6708 	    4.0000 	   12.0000 	   14.2404
    0.2976 	   18.7410 	    4.0000 	   12.0000 	   14.5214
    0.2365 	   18.8118 	    4.0000 	   12.0000 	   14.8045
    0.4959 	   18.8830 	    4.0000 	   12.0000 	   15.0895
    0.3586 	   18.9578 	    4.0000 	   12.0000 	   15.3885
    0.3586 	   19.0363 	    4.0000 	   12.0000 	   15.7025
    0.4044 	   19.1095 	    4.0000 	   12.0000 	   15.9955
    0.3586 	   19.1833 	    4.0000 	   12.0000 	   16.2905
    0.2670 	   19.2565 	    4.0000 	   12.0000 	   16.5836
    0.3281 	   19.3290 	    4.0000 	   12.0000 	   16.8736
    0.4654 	   19.4040 	    4.0000 	   12.0000 	   17.1736
    0.3128 	   19.4793 	    4.0000 	   12.0000 	   17.4746
    0.4349 	   19.5540 	    4.0000 	   12.0000 	   17.7736
    0.3281 	   19.6278 	    4.0000 	   12.0000 	   18.0686
    0.3433 	   19.7048 	    4.0000 	   12.0000 	   18.3767
    0.2823 	   19.7828 	    4.0000 	   12.0000 	   18.6887
    0.3891 	   19.8570 	    4.0000 	   12.0000 	   18.9857
    0.3586 	   19.9315 	    4.0000 	   12.0000 	   19.2837
    0.5112 	   20.0073 	    4.0000 	   12.0000 	   19.5867
    0.3281 	   20.0813 	    4.0000 	   12.0000 	   19.8827
    0.3586 	   20.1540 	    4.0000 	   12.0000 	   20.1738
    0.3128 	   20.2315 	    4.0000 	   12.0000 	   20.4838
    0.3281 	   20.3113 	    4.0000 	   12.0000 	   20.8028
    0.4196 	   20.3833 	    4.0000 	   12.0000 	   21.0908
    0.3433 	   20.4605 	    4.0000 	   12.0000 	   21.3998
    0.3738 	   20.5345 	    4.0000 	   12.0000 	   21.6958
    0.3128 	   20.6090 	    4.0000 	   12.0000 	   21.9939
    0.3281 	   20.6813 	    4.0000 	   12.0000 	   22.2829
    0.1907 	   20.7550 	    4.0000 	   12.0000 	   22.5779
    0.3128 	   20.8355 	    4.0000 	   12.0000 	   22.8989
    0.3586 	   20.9085 	    4.0000 	   12.0000 	   23.1909
    0.3281 	   20.9838 	    4.0000 	   12.0000 	   23.4919
    0.3586 	   21.0625 	    4.0000 	   12.0000 	   23.8070
    0.3586 	   21.1388 	    4.0000 	   12.0000 	   24.1120
    0.4349 	   21.2148 	    4.0000 	   12.0000 	   24.4160
    0.4349 	   21.2958 	    4.0000 	   12.0000 	   24.7400
    0.4196 	   21.3730 	    4.0000 	   12.0000 	   25.0490
    0.4959 	   21.4510 	    4.0000 	   12.0000 	   25.3611
    0.3281 	   21.5305 	    4.0000 	   12.0000 	   25.6791
    0.2518 	   21.6060 	    4.0000 	   12.0000 	   25.9811
    0.3281 	   21.6808 	    4.0000 	   12.0000 	   26.2801
    0.2976 	   21.7583 	    4.0000 	   12.0000 	   26.5901
    0.3738 	   21.8413 	    4.0000 	   12.0000 	   26.9221
    0.2518 	   21.9160 	    4.0000 	   12.0000 	   27.2212
    0.0839 	   21.9955 	    4.0000 	   12.0000 	   27.5392
    0.4807 	   22.0768 	    4.0000 	   12.0000 	   27.8642
    0.2518 	   22.1513 	    4.0000 	   12.0000 	   28.1622
    0.2976 	   22.2315 	    4.0000 	   12.0000 	   28.4832
    0.3738 	   22.3128 	    4.0000 	   12.0000 	   28.8083
    0.4196 	   22.3903 	    4.0000 	   12.0000 	   29.1183
    0.3586 	   22.4650 	    4.0000 	   12.0000 	   29.4173
    0.5722 	   22.5420 	    4.0000 	   12.0000 	   29.7253
    0.4349 	   22.6210 	    4.0000 	   12.0000 	   30.0413
    0.2976 	   22.6975 	    4.0000 	   12.0000 	   30.3473
    0.5264 	   22.7773 	    4.0000 	   12.0000 	   30.6664
    0.4044 	   22.8543 	    4.0000 	   12.0000 	   30.9744
    0.3281 	   22.9320 	    4.0000 	   12.0000 	   31.2854
    0.3586 	   23.0165 	    4.0000 	   12.0000 	   31.6234
    0.5570 	   23.0973 	    4.0000 	   12.0000 	   31.9464
    0.3433 	   23.1748 	    4.0000 	   12.0000 	   32.2564
    0.3433 	   23.2498 	    4.0000 	   12.0000 	   32.5565
    0.4349 	   23.3243 	    4.0000 	   12.0000 	   32.8545
    0.4196 	   23.4003 	    4.0000 	   12.0000 	   33.1585
    0.5112 	   23.4795 	    4.0000 	   12.0000 	   33.4755
    0.4044 	   23.5558 	    4.0000 	   12.0000 	   33.7805
    0.3891 	   23.6335 	    4.0000 	   12.0000 	   34.0916
    0.3738 	   23.7130 	    4.0000 	   12.0000 	   34.4096
    0.1907 	   23.7903 	    4.0000 	   12.0000 	   34.7186
    0.3738 	   23.8700 	    4.0000 	   12.0000 	   35.0376
    0.6332 	   23.9480 	    4.0000 	   12.0000 	   35.3496
    0.3433 	   24.0310 	    4.0000 	   12.0000 	   35.6816
    0.3891 	   24.1110 	    4.0000 	   12.0000 	   36.0017
    0.5417 	   24.1893 	    4.0000 	   12.0000 	   36.3147
    0.6027 	   24.2718 	    4.0000 	   12.0000 	   36.6447
    0.4959 	   24.3555 	    4.0000 	   12.0000 	   36.9797
    0.3738 	   24.4363 	    4.0000 	   12.0000 	   37.3027
    0.3738 	   24.5198 	    4.0000 	   12.0000 	   37.6368
    0.3586 	   24.5998 	    4.0000 	   12.0000 	   37.9568
    0.4044 	   24.6763 	    4.0000 	   12.0000 	   38.2628
    0.5417 	   24.7545 	    4.0000 	   12.0000 	   38.5758
    0.3891 	   24.8318 	    4.0000 	   12.0000 	   38.8848
    0.4044 	   24.9088 	    4.0000 	   12.0000 	   39.1928
    0.4501 	   24.9920 	    4.0000 	   12.0000 	   39.5259
    0.4196 	   25.0705 	    4.0000 	   12.0000 	   39.8399
    0.3433 	   25.1498 	    4.0000 	   12.0000 	   40.1569
    0.3586 	   25.2320 	    4.0000 	   12.0000 	   40.4849
    0.5722 	   25.3140 	    4.0000 	   12.0000 	   40.8129
    0.4349 	   25.3928 	    4.0000 	   12.0000 	   41.1280
    0.3738 	   25.4713 	    4.0000 	   12.0000 	   41.4420
    0.6027 	   25.5520 	    4.0000 	   12.0000 	   41.7650
    0.4349 	   25.6343 	    4.0000 	   12.0000 	   42.0940
    0.4044 	   25.7140 	    4.0000 	   12.0000 	   42.4130
    0.4959 	   25.7930 	    4.0000 	   12.0000 	   42.7290
    0.4501 	   25.8760 	    4.0000 	   12.0000 	   43.0611
    0.3433 	   25.9535 	    4.0000 	   12.0000 	   43.3711
    0.5875 	   26.0330 	    4.0000 	   12.0000 	   43.6891
    0.3433 	   26.1125 	    4.0000 	   12.0000 	   44.0071
    0.2365 	   26.1905 	    4.0000 	   12.0000 	   44.3191
    0.4349 	   26.2725 	    4.0000 	   12.0000 	   44.6472
    0.2060 	   26.3543 	    4.0000 	   12.0000 	   44.9742
    0.5112 	   26.4345 	    4.0000 	   12.0000 	   45.2952
    0.3891 	   26.5150 	    4.0000 	   12.0000 	   45.6172
    0.3128 	   26.5948 	    4.0000 	   12.0000 	   45.9362
    0.3586 	   26.6743 	    4.0000 	   12.0000 	   46.2542
    0.4959 	   26.7525 	    4.0000 	   12.0000 	   46.5673
    0.4654 	   26.8320 	    4.0000 	   12.0000 	   46.8853
    0.4807 	   26.9113 	    4.0000 	   12.0000 	   47.2023
    0.4349 	   26.9930 	    4.0000 	   12.0000 	   47.5293
    0.5722 	   27.0770 	    4.0000 	   12.0000 	   47.8653
    0.3433 	   27.1575 	    4.0000 	   12.0000 	   48.1874
    0.4807 	   27.2368 	    4.0000 	   12.0000 	   48.5044
    0.4959 	   27.3195 	    4.0000 	   12.0000 	   48.8354
    0.4349 	   27.4043 	    4.0000 	   12.0000 	   49.1744
    0.5417 	   27.4830 	    4.0000 	   12.0000 	   49.4894
    0.3586 	   27.5635 	    4.0000 	   12.0000 	   49.8115
    0.3586 	   27.6448 	    4.0000 	   12.0000 	   50.1365
    0.4044 	   27.7298 	    4.0000 	   12.0000 	   50.4765
    0.4044 	   27.8163 	    4.0000 	   12.0000 	   50.8225
    0.4044 	   27.8988 	    4.0000 	   12.0000 	   51.1525
    0.4959 	   27.9800 	    4.0000 	   12.0000 	   51.4775
    0.3738 	   28.0633 	    4.0000 	   12.0000 	   51.8106
    0.2518 	   28.1490 	    4.0000 	   12.0000 	   52.1536
    0.0687 	   28.2325 	    4.0000 	   12.0000 	   52.4876
    0.4654 	   28.3163 	    4.0000 	   12.0000 	   52.8226
    0.2213 	   28.3985 	    4.0000 	   12.0000 	   53.1516
    0.4196 	   28.4790 	    4.0000 	   12.0000 	   53.4737
    0.4807 	   28.5603 	    4.0000 	   12.0000 	   53.7987
    0.3433 	   28.6425 	    4.0000 	   12.0000 	   54.1277
    0.4959 	   28.7248 	    4.0000 	   12.0000 	   54.4567
    0.4501 	   28.8088 	    4.0000 	   12.0000 	   54.7927
    0.5112 	   28.8953 	    4.0000 	   12.0000 	   55.1388
    0.3586 	   28.9788 	    4.0000 	   12.0000 	   55.4728
    0.5722 	   29.0630 	    4.0000 	   12.0000 	   55.8098
    0.5264 	   29.1450 	    4.0000 	   12.0000 	   56.1378
    0.4501 	   29.2248 	    4.0000 	   12.0000 	   56.4568
    0.6332 	   29.3093 	    4.0000 	   12.0000 	   56.7949
    0.3891 	   29.3898 	    4.0000 	   12.0000 	   57.1169
    0.5264 	   29.4713 	    4.0000 	   12.0000 	   57.4429
    0.5570 	   29.5548 	    4.0000 	   12.0000 	   57.7759
    0.5570 	   29.6388 	    4.0000 	   12.0000 	   58.1119
    0.4044 	   29.7193 	    4.0000 	   12.0000 	   58.4339
    0.4349 	   29.8023 	    4.0000 	   12.0000 	   58.7660
    0.4501 	   29.8848 	    4.0000 	   12.0000 	   59.0960
    0.4807 	   29.9658 	    4.0000 	   12.0000 	   59.4200
    0.3586 	   30.0483 	    4.0000 	   12.0000 	   59.7500
    0.4959 	   30.1298 	    4.0000 	   13.0000 	    0.0760
    0.6180 	   30.2113 	    4.0000 	   13.0000 	    0.4021
    0.3433 	   30.2945 	    4.0000 	   13.0000 	    0.7351
    0.4196 	   30.3803 	    4.0000 	   13.0000 	    1.0781
    0.3586 	   30.4628 	    4.0000 	   13.0000 	    1.4081
    0.4349 	   30.5443 	    4.0000 	   13.0000 	    1.7341
    0.4807 	   30.6280 	    4.0000 	   13.0000 	    2.0692
    0.4044 	   30.7088 	    4.0000 	   13.0000 	    2.3922
    0.4807 	   30.7970 	    4.0000 	   13.0000 	    2.7452
    0.5112 	   30.8793 	    4.0000 	   13.0000 	    3.0742
    0.5112 	   30.9603 	    4.0000 	   13.0000 	    3.3982
    0.4501 	   31.0428 	    4.0000 	   13.0000 	    3.7282
    0.5722 	   31.1268 	    4.0000 	   13.0000 	    4.0643
    0.5264 	   31.2078 	    4.0000 	   13.0000 	    4.3883
    0.5875 	   31.2925 	    4.0000 	   13.0000 	    4.7273
    0.4654 	   31.3763 	    4.0000 	   13.0000 	    5.0623
    0.5570 	   31.4615 	    4.0000 	   13.0000 	    5.4033
    0.4349 	   31.5428 	    4.0000 	   13.0000 	    5.7284
    0.6027 	   31.6253 	    4.0000 	   13.0000 	    6.0584
    0.5112 	   31.7083 	    4.0000 	   13.0000 	    6.3904
    0.4654 	   31.7915 	    4.0000 	   13.0000 	    6.7234
    0.4044 	   31.8768 	    4.0000 	   13.0000 	    7.0644
    0.1755 	   31.9590 	    4.0000 	   13.0000 	    7.3935
    0.4349 	   32.0443 	    4.0000 	   13.0000 	    7.7345
    0.4196 	   32.1283 	    4.0000 	   13.0000 	    8.0705
    0.4959 	   32.2143 	    4.0000 	   13.0000 	    8.4145
    0.3433 	   32.2975 	    4.0000 	   13.0000 	    8.7475
    0.3738 	   32.3805 	    4.0000 	   13.0000 	    9.0796
    0.5722 	   32.4655 	    4.0000 	   13.0000 	    9.4196
    0.4807 	   32.5522 	    4.0000 	   13.0000 	    9.7666
    0.5722 	   32.6357 	    4.0000 	   13.0000 	   10.1006
    0.3586 	   32.7198 	    4.0000 	   13.0000 	   10.4366
    0.2976 	   32.8065 	    4.0000 	   13.0000 	   10.7837
    0.2823 	   32.8895 	    4.0000 	   13.0000 	   11.1157
    0.4959 	   32.9725 	    4.0000 	   13.0000 	   11.4477
    0.5417 	   33.0598 	    4.0000 	   13.0000 	   11.7967
    0.3586 	   33.1473 	    4.0000 	   13.0000 	   12.1467
    0.4501 	   33.2318 	    4.0000 	   13.0000 	   12.4847
    0.3586 	   33.3168 	    4.0000 	   13.0000 	   12.8248
    0.4196 	   33.4008 	    4.0000 	   13.0000 	   13.1608
    0.3891 	   33.4853 	    4.0000 	   13.0000 	   13.4988
    0.4959 	   33.5718 	    4.0000 	   13.0000 	   13.8448
    0.3586 	   33.6615 	    4.0000 	   13.0000 	   14.2038
    0.3891 	   33.7478 	    4.0000 	   13.0000 	   14.5489
    0.4349 	   33.8423 	    4.0000 	   13.0000 	   14.9269
    0.4654 	   33.9315 	    4.0000 	   13.0000 	   15.2829
    0.2670 	   34.0170 	    4.0000 	   13.0000 	   15.6249
    0.3281 	   34.1020 	    4.0000 	   13.0000 	   15.9649
    0.2365 	   34.1885 	    4.0000 	   13.0000 	   16.3110
    0.4349 	   34.2728 	    4.0000 	   13.0000 	   16.6480
    0.4501 	   34.3575 	    4.0000 	   13.0000 	   16.9870
    0.3128 	   34.4435 	    4.0000 	   13.0000 	   17.3310
    0.3433 	   34.5295 	    4.0000 	   13.0000 	   17.6750
    0.4196 	   34.6145 	    4.0000 	   13.0000 	   18.0151
    0.3128 	   34.7000 	    4.0000 	   13.0000 	   18.3571
    0.4349 	   34.7840 	    4.0000 	   13.0000 	   18.6931
    0.5264 	   34.8717 	    4.0000 	   13.0000 	   19.0441
    0.4044 	   34.9595 	    4.0000 	   13.0000 	   19.3951
    0.2823 	   35.0470 	    4.0000 	   13.0000 	   19.7452
    0.3738 	   35.1357 	    4.0000 	   13.0000 	   20.1002
    0.4654 	   35.2240 	    4.0000 	   13.0000 	   20.4532
    0.4349 	   35.3105 	    4.0000 	   13.0000 	   20.7992
    0.3586 	   35.3975 	    4.0000 	   13.0000 	   21.1472
    0.4501 	   35.4853 	    4.0000 	   13.0000 	   21.4983
    0.0687 	   35.5720 	    4.0000 	   13.0000 	   21.8453
    0.3128 	   35.6575 	    4.0000 	   13.0000 	   22.1873
    0.2823 	   35.7448 	    4.0000 	   13.0000 	   22.5363
    0.4349 	   35.8340 	    4.0000 	   13.0000 	   22.8933
    0.6027 	   35.9202 	    4.0000 	   13.0000 	   23.2384
    0.2213 	   36.0068 	    4.0000 	   13.0000 	   23.5844
    0.2976 	   36.0935 	    4.0000 	   13.0000 	   23.9314
    0.3738 	   36.1788 	    4.0000 	   13.0000 	   24.2724
    0.3891 	   36.2678 	    4.0000 	   13.0000 	   24.6284
    0.3128 	   36.3598 	    4.0000 	   13.0000 	   24.9965
    0.3281 	   36.4513 	    4.0000 	   13.0000 	   25.3625
    0.2670 	   36.5370 	    4.0000 	   13.0000 	   25.7055
    0.4196 	   36.6245 	    4.0000 	   13.0000 	   26.0555
    0.3891 	   36.7138 	    4.0000 	   13.0000 	   26.4125
    0.2823 	   36.7990 	    4.0000 	   13.0000 	   26.7536
    0.3586 	   36.8868 	    4.0000 	   13.0000 	   27.1046
    0.4654 	   36.9745 	    4.0000 	   13.0000 	   27.4556
    0.2976 	   37.0615 	    4.0000 	   13.0000 	   27.8036
    0.3128 	   37.1493 	    4.0000 	   13.0000 	   28.1546
    0.3128 	   37.2365 	    4.0000 	   13.0000 	   28.5037
    0.3433 	   37.3260 	    4.0000 	   13.0000 	   28.8617
    0.2365 	   37.4123 	    4.0000 	   13.0000 	   29.2067
    0.3586 	   37.5010 	    4.0000 	   13.0000 	   29.5617
    0.2670 	   37.5880 	    4.0000 	   13.0000 	   29.9097
    0.2518 	   37.6748 	    4.0000 	   13.0000 	   30.2568
    0.3891 	   37.7660 	    4.0000 	   13.0000 	   30.6218
    0.3128 	   37.8538 	    4.0000 	   13.0000 	   30.9728
    0.3281 	   37.9438 	    4.0000 	   13.0000 	   31.3328
    0.3738 	   38.0338 	    4.0000 	   13.0000 	   31.6928
    0.3891 	   38.1228 	    4.0000 	   13.0000 	   32.0489
    0.4807 	   38.2158 	    4.0000 	   13.0000 	   32.4209
    0.2060 	   38.3040 	    4.0000 	   13.0000 	   32.7729
    0.3738 	   38.3925 	    4.0000 	   13.0000 	   33.1269
    0.3128 	   38.4810 	    4.0000 	   13.0000 	   33.4809
    0.3891 	   38.5728 	    4.0000 	   13.0000 	   33.8480
    0.4196 	   38.6640 	    4.0000 	   13.0000 	   34.2130
    0.4959 	   38.7528 	    4.0000 	   13.0000 	   34.5680
    0.2213 	   38.8393 	    4.0000 	   13.0000 	   34.9140
    0.3433 	   38.9260 	    4.0000 	   13.0000 	   35.2611
    0.3891 	   39.0135 	    4.0000 	   13.0000 	   35.6111
    0.4044 	   39.1018 	    4.0000 	   13.0000 	   35.9641
    0.3586 	   39.1918 	    4.0000 	   13.0000 	   36.3241
    0.2213 	   39.2808 	    4.0000 	   13.0000 	   36.6801
    0.2213 	   39.3713 	    4.0000 	   13.0000 	   37.0422
    0.3586 	   39.4605 	    4.0000 	   13.0000 	   37.3992
    0.2518 	   39.5483 	    4.0000 	   13.0000 	   37.7502
    0.3586 	   39.6388 	    4.0000 	   13.0000 	   38.1122
    0.4044 	   39.7275 	    4.0000 	   13.0000 	   38.4672
    0.3891 	   39.8200 	    4.0000 	   13.0000 	   38.8373
    0.3586 	   39.9150 	    4.0000 	   13.0000 	   39.2173
    0.0839 	   40.0053 	    4.0000 	   13.0000 	   39.5783
    0.2365 	   40.0973 	    4.0000 	   13.0000 	   39.9463
    0.3281 	   40.1858 	    4.0000 	   13.0000 	   40.3003
    0.2670 	   40.2760 	    4.0000 	   13.0000 	   40.6614
    0.3433 	   40.3680 	    4.0000 	   13.0000 	   41.0294
    0.3891 	   40.4585 	    4.0000 	   13.0000 	   41.3914
    0.3281 	   40.5498 	    4.0000 	   13.0000 	   41.7564
    0.2365 	   40.6395 	    4.0000 	   13.0000 	   42.1154
    0.4501 	   40.7308 	    4.0000 	   13.0000 	   42.4805
    0.3128 	   40.8223 	    4.0000 	   13.0000 	   42.8465
    0.2365 	   40.9125 	    4.0000 	   13.0000 	   43.2075
    0.3281 	   41.0058 	    4.0000 	   13.0000 	   43.5805
    0.2365 	   41.0980 	    4.0000 	   13.0000 	   43.9496
    0.4959 	   41.1893 	    4.0000 	   13.0000 	   44.3146
    0.3891 	   41.2783 	    4.0000 	   13.0000 	   44.6706
    0.2670 	   41.3700 	    4.0000 	   13.0000 	   45.0376
    0.5570 	   41.4610 	    4.0000 	   13.0000 	   45.4016
    0.3128 	   41.5540 	    4.0000 	   13.0000 	   45.7737
    0.1907 	   41.6495 	    4.0000 	   13.0000 	   46.1557
    0.2976 	   41.7440 	    4.0000 	   13.0000 	   46.5337
    0.3128 	   41.8333 	    4.0000 	   13.0000 	   46.8907
    0.1907 	   41.9265 	    4.0000 	   13.0000 	   47.2637
    0.3891 	   42.0190 	    4.0000 	   13.0000 	   47.6338
    0.1755 	   42.1125 	    4.0000 	   13.0000 	   48.0078
    0.3433 	   42.2043 	    4.0000 	   13.0000 	   48.3748
    0.3281 	   42.2983 	    4.0000 	   13.0000 	   48.7508
    0.2518 	   42.3908 	    4.0000 	   13.0000 	   49.1208
    0.3128 	   42.4828 	    4.0000 	   13.0000 	   49.4889
    0.2670 	   42.5758 	    4.0000 	   13.0000 	   49.8609
    0.3128 	   42.6703 	    4.0000 	   13.0000 	   50.2379
    0.2518 	   42.7638 	    4.0000 	   13.0000 	   50.6119
    0.4044 	   42.8535 	    4.0000 	   13.0000 	   50.9710
    0.4044 	   42.9435 	    4.0000 	   13.0000 	   51.3310
    0.0992 	   43.0388 	    4.0000 	   13.0000 	   51.7120
    0.2518 	   43.1305 	    4.0000 	   13.0000 	   52.0790
    0.3891 	   43.2258 	    4.0000 	   13.0000 	   52.4600
    0.2365 	   43.3198 	    4.0000 	   13.0000 	   52.8361
    0.1907 	   43.4108 	    4.0000 	   13.0000 	   53.2001
    0.2060 	   43.5028 	    4.0000 	   13.0000 	   53.5681
    0.4349 	   43.5963 	    4.0000 	   13.0000 	   53.9421
    0.3586 	   43.6875 	    4.0000 	   13.0000 	   54.3071
    0.3128 	   43.7780 	    4.0000 	   13.0000 	   54.6692
    0.3891 	   43.8763 	    4.0000 	   13.0000 	   55.0622
    0.3738 	   43.9675 	    4.0000 	   13.0000 	   55.4272
    0.2823 	   44.0630 	    4.0000 	   13.0000 	   55.8092
    0.3281 	   44.1560 	    4.0000 	   13.0000 	   56.1812
    0.2823 	   44.2478 	    4.0000 	   13.0000 	   56.5483
    0.1450 	   44.3423 	    4.0000 	   13.0000 	   56.9263
    0.2823 	   44.4338 	    4.0000 	   13.0000 	   57.2923
    0.2060 	   44.5250 	    4.0000 	   13.0000 	   57.6573
    0.2213 	   44.6218 	    4.0000 	   13.0000 	   58.0444
    0.2213 	   44.7148 	    4.0000 	   13.0000 	   58.4164
    0.0534 	   44.8058 	    4.0000 	   13.0000 	   58.7804
    0.1297 	   44.8995 	    4.0000 	   13.0000 	   59.1554
    0.2060 	   44.9905 	    4.0000 	   13.0000 	   59.5194
    0.1602 	   45.0870 	    4.0000 	   13.0000 	   59.9055
    0.2823 	   45.1860 	    4.0000 	   14.0000 	    0.3015
    0.1907 	   45.2830 	    4.0000 	   14.0000 	    0.6895
    0.2670 	   45.3758 	    4.0000 	   14.0000 	    1.0605
    0.2976 	   45.4758 	    4.0000 	   14.0000 	    1.4606
    0.1907 	   45.5695 	    4.0000 	   14.0000 	    1.8356
    0.2518 	   45.6630 	    4.0000 	   14.0000 	    2.2096
    0.3738 	   45.7575 	    4.0000 	   14.0000 	    2.5876
    0.3738 	   45.8525 	    4.0000 	   14.0000 	    2.9676
    0.2976 	   45.9473 	    4.0000 	   14.0000 	    3.3467
    0.1602 	   46.0443 	    4.0000 	   14.0000 	    3.7337
    0.2518 	   46.1390 	    4.0000 	   14.0000 	    4.1137
    0.3128 	   46.2350 	    4.0000 	   14.0000 	    4.4977
    0.3738 	   46.3320 	    4.0000 	   14.0000 	    4.8857
    0.2518 	   46.4285 	    4.0000 	   14.0000 	    5.2718
    0.0076 	   46.5293 	    4.0000 	   14.0000 	    5.6748
    0.3128 	   46.6300 	    4.0000 	   14.0000 	    6.0778
    0.2213 	   46.7335 	    4.0000 	   14.0000 	    6.4918
    0.1755 	   46.8343 	    4.0000 	   14.0000 	    6.8939
    0.4044 	   46.9283 	    4.0000 	   14.0000 	    7.2709
    0.2670 	   47.0318 	    4.0000 	   14.0000 	    7.6839
    0.1450 	   47.1278 	    4.0000 	   14.0000 	    8.0679
    0.2976 	   47.2263 	    4.0000 	   14.0000 	    8.4620
    0.2670 	   47.3240 	    4.0000 	   14.0000 	    8.8530
    0.2518 	   47.4250 	    4.0000 	   14.0000 	    9.2570
    0.3281 	   47.5275 	    4.0000 	   14.0000 	    9.6670
    0.2060 	   47.6233 	    4.0000 	   14.0000 	   10.0500
    0.2060 	   47.7175 	    4.0000 	   14.0000 	   10.4271
    0.2823 	   47.8133 	    4.0000 	   14.0000 	   10.8101
    0.1297 	   47.9113 	    4.0000 	   14.0000 	   11.2021
    0.2060 	   48.0093 	    4.0000 	   14.0000 	   11.5941
    0.1602 	   48.1050 	    4.0000 	   14.0000 	   11.9772
    0.1297 	   48.2008 	    4.0000 	   14.0000 	   12.3602
    0.2060 	   48.2983 	    4.0000 	   14.0000 	   12.7502
    0.3281 	   48.3970 	    4.0000 	   14.0000 	   13.1452
    0.2213 	   48.4953 	    4.0000 	   14.0000 	   13.5382
    0.2365 	   48.5925 	    4.0000 	   14.0000 	   13.9273
    0.2213 	   48.6883 	    4.0000 	   14.0000 	   14.3103
    0.1755 	   48.7845 	    4.0000 	   14.0000 	   14.6953
    0.0992 	   48.8843 	    4.0000 	   14.0000 	   15.0943
    0.2976 	   48.9810 	    4.0000 	   14.0000 	   15.4814
    0.2365 	   49.0800 	    4.0000 	   14.0000 	   15.8774
    0.1755 	   49.1810 	    4.0000 	   14.0000 	   16.2814
    0.1755 	   49.2805 	    4.0000 	   14.0000 	   16.6794
    0.2365 	   49.3778 	    4.0000 	   14.0000 	   17.0684
    0.2060 	   49.4763 	    4.0000 	   14.0000 	   17.4625
    0.2518 	   49.5728 	    4.0000 	   14.0000 	   17.8485
   -0.0839 	   49.6685 	    4.0000 	   14.0000 	   18.2315
    0.2823 	   49.7655 	    4.0000 	   14.0000 	   18.6195
    0.2976 	   49.8623 	    4.0000 	   14.0000 	   19.0066
    0.2213 	   49.9598 	    4.0000 	   14.0000 	   19.3966
    0.1144 	   50.0585 	    4.0000 	   14.0000 	   19.7916
    0.3891 	   50.1548 	    4.0000 	   14.0000 	   20.1766
    0.0687 	   50.2528 	    4.0000 	   14.0000 	   20.5686
   -0.0381 	   50.3513 	    4.0000 	   14.0000 	   20.9627
    0.2060 	   50.4485 	    4.0000 	   14.0000 	   21.3517
   -0.1907 	   50.5485 	    4.0000 	   14.0000 	   21.7517
    0.3128 	   50.6450 	    4.0000 	   14.0000 	   22.1377
    0.1450 	   50.7413 	    4.0000 	   14.0000 	   22.5228
    0.2518 	   50.8395 	    4.0000 	   14.0000 	   22.9158
    0.2518 	   50.9388 	    4.0000 	   14.0000 	   23.3128
    0.2365 	   51.0390 	    4.0000 	   14.0000 	   23.7138
    0.1907 	   51.1360 	    4.0000 	   14.0000 	   24.1018
    0.2060 	   51.2383 	    4.0000 	   14.0000 	   24.5109
    0.2060 	   51.3355 	    4.0000 	   14.0000 	   24.8999
    0.2213 	   51.4340 	    4.0000 	   14.0000 	   25.2929
    0.1450 	   51.5328 	    4.0000 	   14.0000 	   25.6879
    0.2823 	   51.6333 	    4.0000 	   14.0000 	   26.0900
    0.3281 	   51.7353 	    4.0000 	   14.0000 	   26.4980
    0.3738 	   51.8338 	    4.0000 	   14.0000 	   26.8920
    0.2060 	   51.9330 	    4.0000 	   14.0000 	   27.2890
    0.1144 	   52.0335 	    4.0000 	   14.0000 	   27.6911
    0.1907 	   52.1320 	    4.0000 	   14.0000 	   28.0851
    0.3586 	   52.2320 	    4.0000 	   14.0000 	   28.4851
    0.1907 	   52.3320 	    4.0000 	   14.0000 	   28.8851
    0.0992 	   52.4360 	    4.0000 	   14.0000 	   29.3011
    0.0992 	   52.5360 	    4.0000 	   14.0000 	   29.7012
    0.2518 	   52.6358 	    4.0000 	   14.0000 	   30.1002
    0.2670 	   52.7353 	    4.0000 	   14.0000 	   30.4982
    0.1144 	   52.8335 	    4.0000 	   14.0000 	   30.8912
    0.4044 	   52.9320 	    4.0000 	   14.0000 	   31.2853
    0.3433 	   53.0325 	    4.0000 	   14.0000 	   31.6873
    0.1297 	   53.1340 	    4.0000 	   14.0000 	   32.0933
   -0.1297 	   53.2343 	    4.0000 	   14.0000 	   32.4943
    0.1755 	   53.3358 	    4.0000 	   14.0000 	   32.9003
    0.1755 	   53.4393 	    4.0000 	   14.0000 	   33.3144
    0.1907 	   53.5385 	    4.0000 	   14.0000 	   33.7114
    0.1602 	   53.6375 	    4.0000 	   14.0000 	   34.1074
    0.1755 	   53.7383 	    4.0000 	   14.0000 	   34.5104
    0.1907 	   53.8370 	    4.0000 	   14.0000 	   34.9055
    0.2518 	   53.9393 	    4.0000 	   14.0000 	   35.3145
    0.2670 	   54.0445 	    4.0000 	   14.0000 	   35.7355
    0.2213 	   54.1428 	    4.0000 	   14.0000 	   36.1285
    0.1602 	   54.2433 	    4.0000 	   14.0000 	   36.5306
    0.1602 	   54.3448 	    4.0000 	   14.0000 	   36.9366
    0.1144 	   54.4448 	    4.0000 	   14.0000 	   37.3366
    0.1450 	   54.5473 	    4.0000 	   14.0000 	   37.7466
    0.1907 	   54.6513 	    4.0000 	   14.0000 	   38.1627
    0.1907 	   54.7555 	    4.0000 	   14.0000 	   38.5797
    0.2670 	   54.8573 	    4.0000 	   14.0000 	   38.9867
    0.1297 	   54.9595 	    4.0000 	   14.0000 	   39.3957
    0.2060 	   55.0618 	    4.0000 	   14.0000 	   39.8047
    0.1907 	   55.1625 	    4.0000 	   14.0000 	   40.2078
    0.1755 	   55.2650 	    4.0000 	   14.0000 	   40.6178
    0.2365 	   55.3683 	    4.0000 	   14.0000 	   41.0308
    0.2670 	   55.4690 	    4.0000 	   14.0000 	   41.4338
    0.1297 	   55.5718 	    4.0000 	   14.0000 	   41.8449
    0.4196 	   55.6720 	    4.0000 	   14.0000 	   42.2459
    0.3586 	   55.7743 	    4.0000 	   14.0000 	   42.6539
    0.1602 	   55.8758 	    4.0000 	   14.0000 	   43.0599
    0.0992 	   55.9780 	    4.0000 	   14.0000 	   43.4690
    0.1450 	   56.0795 	    4.0000 	   14.0000 	   43.8750
    0.1297 	   56.1825 	    4.0000 	   14.0000 	   44.2870
    0.2670 	   56.2845 	    4.0000 	   14.0000 	   44.6950
    0.1907 	   56.3865 	    4.0000 	   14.0000 	   45.1030
    0.2365 	   56.4865 	    4.0000 	   14.0000 	   45.5031
    0.1755 	   56.5875 	    4.0000 	   14.0000 	   45.9071
    0.1602 	   56.6915 	    4.0000 	   14.0000 	   46.3231
    0.2670 	   56.7915 	    4.0000 	   14.0000 	   46.7231
    0.1144 	   56.8948 	    4.0000 	   14.0000 	   47.1362
    0.0687 	   57.0003 	    4.0000 	   14.0000 	   47.5582
    0.1144 	   57.1045 	    4.0000 	   14.0000 	   47.9752
    0.2213 	   57.2098 	    4.0000 	   14.0000 	   48.3962
    0.0839 	   57.3115 	    4.0000 	   14.0000 	   48.8033
    0.2670 	   57.4130 	    4.0000 	   14.0000 	   49.2093
    0.1755 	   57.5165 	    4.0000 	   14.0000 	   49.6233
    0.2213 	   57.6208 	    4.0000 	   14.0000 	   50.0403
    0.0992 	   57.7238 	    4.0000 	   14.0000 	   50.4524
    0.0534 	   57.8275 	    4.0000 	   14.0000 	   50.8674
    0.2518 	   57.9285 	    4.0000 	   14.0000 	   51.2714
    0.1907 	   58.0310 	    4.0000 	   14.0000 	   51.6814
    0.1755 	   58.1325 	    4.0000 	   14.0000 	   52.0874
    0.2060 	   58.2345 	    4.0000 	   14.0000 	   52.4955
    0.2213 	   58.3363 	    4.0000 	   14.0000 	   52.9025
    0.0687 	   58.4403 	    4.0000 	   14.0000 	   53.3185
    0.1602 	   58.5430 	    4.0000 	   14.0000 	   53.7295
    0.2213 	   58.6488 	    4.0000 	   14.0000 	   54.1516
    0.1144 	   58.7508 	    4.0000 	   14.0000 	   54.5606
    0.2060 	   58.8530 	    4.0000 	   14.0000 	   54.9696
    0.0992 	   58.9593 	    4.0000 	   14.0000 	   55.3946
    0.0992 	   59.0648 	    4.0000 	   14.0000 	   55.8167
   -0.0534 	   59.1690 	    4.0000 	   14.0000 	   56.2337
    0.0381 	   59.2710 	    4.0000 	   14.0000 	   56.6417
    0.2365 	   59.3748 	    4.0000 	   14.0000 	   57.0567
    0.2976 	   59.4810 	    4.0000 	   14.0000 	   57.4818
    0.1755 	   59.5820 	    4.0000 	   14.0000 	   57.8858
    0.2365 	   59.6860 	    4.0000 	   14.0000 	   58.3018
    0.2518 	   59.7865 	    4.0000 	   14.0000 	   58.7038
    0.0839 	   59.8888 	    4.0000 	   14.0000 	   59.1128
    0.2213 	   59.9895 	    4.0000 	   14.0000 	   59.5159
    0.2518 	   60.0928 	    4.0000 	   14.0000 	   59.9289
    0.1907 	   60.1930 	    4.0000 	   15.0000 	    0.3289
    0.2976 	   60.2953 	    4.0000 	   15.0000 	    0.7379
    0.1450 	   60.3998 	    4.0000 	   15.0000 	    1.1560
    0.0687 	   60.4153 	    4.0000 	   15.0000 	    1.2180