File: instron/good1.txt
Thayer School of Engineering        Instron 4442 Mechanical Testing System
6/27/2018 11:23:16 PM

  Force (N)	Extension (mm)	Not Used	Not Used	Not Used	     Hour	    Minute	    Second
   -0.0534 	    0.2565 	   23.0000 	   23.0000 	   35.4528
   -0.0534 	    0.3748 	   23.0000 	   23.0000 	   35.9259
    0.0076 	    0.5078 	   23.0000 	   23.0000 	   36.4579
   -0.2365 	    0.6298 	   23.0000 	   23.0000 	   36.9459
   -0.0687 	    0.7628 	   23.0000 	   23.0000 	   37.4780
    0.0992 	    0.8613 	   23.0000 	   23.0000 	   37.8720
   -0.0229 	    0.9423 	   23.0000 	   23.0000 	   38.1960
    0.0229 	    1.0210 	   23.0000 	   23.0000 	   38.5110
    0.0534 	    1.1030 	   23.0000 	   23.0000 	   38.8390
   -0.0076 	    1.1858 	   23.0000 	   23.0000 	   39.1701
    0.0076 	    1.2720 	   23.0000 	   23.0000 	   39.5151
   -0.0534 	    1.3505 	   23.0000 	   23.0000 	   39.8291
    0.0229 	    1.4300 	   23.0000 	   23.0000 	   40.1471
    0.0534 	    1.5105 	   23.0000 	   23.0000 	   40.4681
   -0.0687 	    1.5890 	   23.0000 	   23.0000 	   40.7821
   -0.0839 	    1.6698 	   23.0000 	   23.0000 	   41.1052
    0.0076 	    1.7498 	   23.0000 	   23.0000 	   41.4252
   -0.0229 	    1.8288 	   23.0000 	   23.0000 	   41.7412
   -0.2060 	    1.9113 	   23.0000 	   23.0000 	   42.0712
   -0.0229 	    1.9910 	   23.0000 	   23.0000 	   42.3902
    0.0992 	    2.0705 	   23.0000 	   23.0000 	   42.7083
   -0.0687 	    2.1530 	   23.0000 	   23.0000 	   43.0383
   -0.0534 	    2.2315 	   23.0000 	   23.0000 	   43.3523
    0.1602 	    2.3105 	   23.0000 	   23.0000 	   43.6683
    0.1297 	    2.3900 	   23.0000 	   23.0000 	   43.9863
    0.2060 	    2.4693 	   23.0000 	   23.0000 	   44.3033
    0.2670 	    2.5493 	   23.0000 	   23.0000 	   44.6234
    0.2060 	    2.6298 	   23.0000 	   23.0000 	   44.9454
    0.0534 	    2.7103 	   23.0000 	   23.0000 	   45.2674
    0.0992 	    2.7918 	   23.0000 	   23.0000 	   45.5934
    0.0992 	    2.8743 	   23.0000 	   23.0000 	   45.9234
    0.1450 	    2.9553 	   23.0000 	   23.0000 	   46.2475
    0.1144 	    3.0375 	   23.0000 	   23.0000 	   46.5765
    0.1450 	    3.1210 	   23.0000 	   23.0000 	   46.9105
    0.1602 	    3.2023 	   23.0000 	   23.0000 	   47.2355
    0.1907 	    3.2833 	   23.0000 	   23.0000 	   47.5595
    0.1602 	    3.3655 	   23.0000 	   23.0000 	   47.8885
    0.1450 	    3.4478 	   23.0000 	   23.0000 	   48.2176
    0.2670 	    3.5273 	   23.0000 	   23.0000 	   48.5356
    0.1907 	    3.6083 	   23.0000 	   23.0000 	   48.8596
    0.2823 	    3.6950 	   23.0000 	   23.0000 	   49.2066
    0.3128 	    3.7753 	   23.0000 	   23.0000 	   49.5276
    0.3891 	    3.8575 	   23.0000 	   23.0000 	   49.8567
    0.2976 	    3.9418 	   23.0000 	   23.0000 	   50.1937
    0.3891 	    4.0255 	   23.0000 	   23.0000 	   50.5287
    0.3433 	    4.1035 	   23.0000 	   23.0000 	   50.8407
    0.4044 	    4.1758 	   23.0000 	   23.0000 	   51.1297
    0.4349 	    4.2558 	   23.0000 	   23.0000 	   51.4498
    0.4501 	    4.3393 	   23.0000 	   23.0000 	   51.7838
    0.5112 	    4.4233 	   23.0000 	   23.0000 	   52.1198
    0.2365 	    4.5052 	   23.0000 	   23.0000 	   52.4478
    0.4349 	    4.5840 	   23.0000 	   23.0000 	   52.7628
    0.4959 	    4.6678 	   23.0000 	   23.0000 	   53.0979
    0.7401 	    4.7515 	   23.0000 	   23.0000 	   53.4329
    0.6638 	    4.8278 	   23.0000 	   23.0000 	   53.7379
    0.6332 	    4.9033 	   23.0000 	   23.0000 	   54.0399
    0.5112 	    4.9888 	   23.0000 	   23.0000 	   54.3819
    0.5570 	    5.0745 	   23.0000 	   23.0000 	   54.7249
    0.7248 	    5.1608 	   23.0000 	   23.0000 	   55.0700
    0.8927 	    5.2430 	   23.0000 	   23.0000 	   55.3990
    0.9079 	    5.3280 	   23.0000 	   23.0000 	   55.7390
    0.8316 	    5.4128 	   23.0000 	   23.0000 	   56.0780
    0.6638 	    5.4958 	   23.0000 	   23.0000 	   56.4100
    0.9995 	    5.5813 	   23.0000 	   23.0000 	   56.7521
    0.9842 	    5.6688 	   23.0000 	   23.0000 	   57.1021
    0.9232 	    5.7520 	   23.0000 	   23.0000 	   57.4351
    1.0452 	    5.8298 	   23.0000 	   23.0000 	   57.7451
    1.0758 	    5.9090 	   23.0000 	   23.0000 	   58.0621
    1.0605 	    5.9920 	   23.0000 	   23.0000 	   58.3942
    1.1521 	    6.0760 	   23.0000 	   23.0000 	   58.7302
    1.2436 	    6.1608 	   23.0000 	   23.0000 	   59.0692
    1.1063 	    6.2543 	   23.0000 	   23.0000 	   59.4432
    1.3046 	    6.3390 	   23.0000 	   23.0000 	   59.7822
    1.2284 	    6.4263 	   23.0000 	   24.0000 	    0.1313
    1.1826 	    6.5093 	   23.0000 	   24.0000 	    0.4633
    1.1978 	    6.5945 	   23.0000 	   24.0000 	    0.8043
    1.2436 	    6.6700 	   23.0000 	   24.0000 	    1.1063
    1.3352 	    6.7435 	   23.0000 	   24.0000 	    1.4003
    1.3504 	    6.8225 	   23.0000 	   24.0000 	    1.7163
    1.3657 	    6.9045 	   23.0000 	   24.0000 	    2.0444
    1.2284 	    6.9893 	   23.0000 	   24.0000 	    2.3834
    1.3504 	    7.0705 	   23.0000 	   24.0000 	    2.7084
    1.4420 	    7.1535 	   23.0000 	   24.0000 	    3.0404
    1.3504 	    7.2395 	   23.0000 	   24.0000 	    3.3844
    1.3504 	    7.3200 	   23.0000 	   24.0000 	    3.7065
    1.4725 	    7.3953 	   23.0000 	   24.0000 	    4.0075
    1.4878 	    7.4780 	   23.0000 	   24.0000 	    4.3385
    1.5030 	    7.5663 	   23.0000 	   24.0000 	    4.6915
    1.4725 	    7.6535 	   23.0000 	   24.0000 	    5.0405
    1.3962 	    7.7393 	   23.0000 	   24.0000 	    5.3836
    1.4420 	    7.8285 	   23.0000 	   24.0000 	    5.7406
    1.5183 	    7.9140 	   23.0000 	   24.0000 	    6.0826
    1.6403 	    7.9970 	   23.0000 	   24.0000 	    6.4146
    1.5640 	    8.0835 	   23.0000 	   24.0000 	    6.7606
    1.4725 	    8.1620 	   23.0000 	   24.0000 	    7.0746
    1.5030 	    8.2500 	   23.0000 	   24.0000 	    7.4267
    1.7624 	    8.3293 	   23.0000 	   24.0000 	    7.7437
    1.8387 	    8.4173 	   23.0000 	   24.0000 	    8.0957
    1.5183 	    8.5045 	   23.0000 	   24.0000 	    8.4447
    1.6403 	    8.5825 	   23.0000 	   24.0000 	    8.7567
    1.7777 	    8.6618 	   23.0000 	   24.0000 	    9.0738
    1.6709 	    8.7420 	   23.0000 	   24.0000 	    9.3948
    1.7014 	    8.8285 	   23.0000 	   24.0000 	    9.7408
    1.7929 	    8.9165 	   23.0000 	   24.0000 	   10.0928
    1.7472 	    9.0040 	   23.0000 	   24.0000 	   10.4428
    1.7624 	    9.0905 	   23.0000 	   24.0000 	   10.7889
    1.8082 	    9.1795 	   23.0000 	   24.0000 	   11.1449
    1.8235 	    9.2763 	   23.0000 	   24.0000 	   11.5319
    1.7929 	    9.3643 	   23.0000 	   24.0000 	   11.8839
    1.8235 	    9.4545 	   23.0000 	   24.0000 	   12.2449
    1.8997 	    9.5418 	   23.0000 	   24.0000 	   12.5940
    1.9608 	    9.6260 	   23.0000 	   24.0000 	   12.9310
    1.9303 	    9.7148 	   23.0000 	   24.0000 	   13.2860
    2.0676 	    9.8033 	   23.0000 	   24.0000 	   13.6400
    1.8845 	    9.8928 	   23.0000 	   24.0000 	   13.9980
    1.9760 	    9.9825 	   23.0000 	   24.0000 	   14.3571
    1.8387 	   10.0735 	   23.0000 	   24.0000 	   14.7211
    1.7319 	   10.1633 	   23.0000 	   24.0000 	   15.0801
    2.0066 	   10.2530 	   23.0000 	   24.0000 	   15.4381
    1.9608 	   10.3370 	   23.0000 	   24.0000 	   15.7741
    2.0676 	   10.4233 	   23.0000 	   24.0000 	   16.1192
    2.1744 	   10.5130 	   23.0000 	   24.0000 	   16.4782
    1.9760 	   10.6033 	   23.0000 	   24.0000 	   16.8392
    2.0676 	   10.6925 	   23.0000 	   24.0000 	   17.1962
    2.0981 	   10.7820 	   23.0000 	   24.0000 	   17.5542
    2.0523 	   10.8733 	   23.0000 	   24.0000 	   17.9193
    2.1592 	   10.9643 	   23.0000 	   24.0000 	   18.2833
    2.1744 	   11.0548 	   23.0000 	   24.0000 	   18.6453
    2.1744 	   11.1445 	   23.0000 	   24.0000 	   19.0043
    2.2812 	   11.2358 	   23.0000 	   24.0000 	   19.3694
    2.0218 	   11.3245 	   23.0000 	   24.0000 	   19.7244
    2.2202 	   11.4170 	   23.0000 	   24.0000 	   20.0944
    2.1592 	   11.5058 	   23.0000 	   24.0000 	   20.4494
    2.2660 	   11.5870 	   23.0000 	   24.0000 	   20.7744
    2.2354 	   11.6730 	   23.0000 	   24.0000 	   21.1185
    2.1897 	   11.7635 	   23.0000 	   24.0000 	   21.4805
    2.3575 	   11.8538 	   23.0000 	   24.0000 	   21.8415
    2.1897 	   11.9465 	   23.0000 	   24.0000 	   22.2125
    2.3728 	   12.0388 	   23.0000 	   24.0000 	   22.5815
    2.3117 	   12.1300 	   23.0000 	   24.0000 	   22.9466
    2.3880 	   12.2215 	   23.0000 	   24.0000 	   23.3126
    2.0981 	   12.3145 	   23.0000 	   24.0000 	   23.6846
    2.5406 	   12.4058 	   23.0000 	   24.0000 	   24.0496
    2.5101 	   12.4973 	   23.0000 	   24.0000 	   24.4156
    2.3880 	   12.5895 	   23.0000 	   24.0000 	   24.7847
    2.5864 	   12.6823 	   23.0000 	   24.0000 	   25.1557
    2.5101 	   12.7760 	   23.0000 	   24.0000 	   25.5307
    2.1439 	   12.8690 	   23.0000 	   24.0000 	   25.9027
    2.3880 	   12.9613 	   23.0000 	   24.0000 	   26.2717
    2.4491 	   13.0535 	   23.0000 	   24.0000 	   26.6408
    2.5559 	   13.1478 	   23.0000 	   24.0000 	   27.0178
    2.5711 	   13.2415 	   23.0000 	   24.0000 	   27.3928
    2.5559 	   13.3430 	   23.0000 	   24.0000 	   27.7988
    2.6322 	   13.4378 	   23.0000 	   24.0000 	   28.1779
    2.5254 	   13.5325 	   23.0000 	   24.0000 	   28.5569
    2.5711 	   13.6185 	   23.0000 	   24.0000 	   28.9009
    2.6627 	   13.7098 	   23.0000 	   24.0000 	   29.2659
    2.6932 	   13.8033 	   23.0000 	   24.0000 	   29.6399
    2.8153 	   13.8965 	   23.0000 	   24.0000 	   30.0130
    2.6474 	   13.9845 	   23.0000 	   24.0000 	   30.3650
    2.8153 	   14.0773 	   23.0000 	   24.0000 	   30.7360
    2.7237 	   14.1633 	   23.0000 	   24.0000 	   31.0800
    2.6627 	   14.2475 	   23.0000 	   24.0000 	   31.4170
    2.9068 	   14.3373 	   23.0000 	   24.0000 	   31.7761
    2.8458 	   14.4293 	   23.0000 	   24.0000 	   32.1441
    2.7390 	   14.5178 	   23.0000 	   24.0000 	   32.4981
    2.8305 	   14.6123 	   23.0000 	   24.0000 	   32.8751
    2.7848 	   14.7095 	   23.0000 	   24.0000 	   33.2641
    2.8916 	   14.8043 	   23.0000 	   24.0000 	   33.6432
    2.8916 	   14.8935 	   23.0000 	   24.0000 	   34.0002
    3.0137 	   14.9775 	   23.0000 	   24.0000 	   34.3362
    2.8611 	   15.0630 	   23.0000 	   24.0000 	   34.6782
    2.9831 	   15.1530 	   23.0000 	   24.0000 	   35.0382
    2.8763 	   15.2488 	   23.0000 	   24.0000 	   35.4213
    2.9068 	   15.3353 	   23.0000 	   24.0000 	   35.7673
    2.9679 	   15.4203 	   23.0000 	   24.0000 	   36.1073
    2.9374 	   15.5125 	   23.0000 	   24.0000 	   36.4763
    3.0747 	   15.6070 	   23.0000 	   24.0000 	   36.8544
    2.9679 	   15.6968 	   23.0000 	   24.0000 	   37.2134
    3.0900 	   15.7915 	   23.0000 	   24.0000 	   37.5924
    3.2120 	   15.8885 	   23.0000 	   24.0000 	   37.9804
    3.1052 	   15.9808 	   23.0000 	   24.0000 	   38.3494
    3.0289 	   16.0753 	   23.0000 	   24.0000 	   38.7275
    3.0137 	   16.1728 	   23.0000 	   24.0000 	   39.1175
    3.2273 	   16.2588 	   23.0000 	   24.0000 	   39.4615
    3.2883 	   16.3565 	   23.0000 	   24.0000 	   39.8525
    3.0900 	   16.4540 	   23.0000 	   24.0000 	   40.2425
    3.1815 	   16.5405 	   23.0000 	   24.0000 	   40.5886
    3.4257 	   16.6258 	   23.0000 	   24.0000 	   40.9296
    3.1968 	   16.7135 	   23.0000 	   24.0000 	   41.2806
    2.9221 	   16.7995 	   23.0000 	   24.0000 	   41.6246
    3.2578 	   16.8940 	   23.0000 	   24.0000 	   42.0026
    3.2883 	   16.9910 	   23.0000 	   24.0000 	   42.3907
    3.2731 	   17.0880 	   23.0000 	   24.0000 	   42.7787
    3.3036 	   17.1833 	   23.0000 	   24.0000 	   43.1597
    3.3951 	   17.2768 	   23.0000 	   24.0000 	   43.5337
    3.3646 	   17.3653 	   23.0000 	   24.0000 	   43.8878
    3.0900 	   17.4535 	   23.0000 	   24.0000 	   44.2408
    3.2120 	   17.5417 	   23.0000 	   24.0000 	   44.5938
    3.4409 	   17.6300 	   23.0000 	   24.0000 	   44.9468
    3.5019 	   17.7170 	   23.0000 	   24.0000 	   45.2948
    3.3646 	   17.8150 	   23.0000 	   24.0000 	   45.6869
    3.5782 	   17.9060 	   23.0000 	   24.0000 	   46.0509
    3.4409 	   18.0025 	   23.0000 	   24.0000 	   46.4369
    3.6545 	   18.0928 	   23.0000 	   24.0000 	   46.7979
    3.6088 	   18.1803 	   23.0000 	   24.0000 	   47.1479
    3.5172 	   18.2680 	   23.0000 	   24.0000 	   47.4990
    3.5477 	   18.3558 	   23.0000 	   24.0000 	   47.8500
    3.2883 	   18.4448 	   23.0000 	   24.0000 	   48.2060
    3.5325 	   18.5345 	   23.0000 	   24.0000 	   48.5650
    3.5477 	   18.6223 	   23.0000 	   24.0000 	   48.9160
    3.6088 	   18.7098 	   23.0000 	   24.0000 	   49.2661
    3.7919 	   18.7970 	   23.0000 	   24.0000 	   49.6151
    3.5325 	   18.8850 	   23.0000 	   24.0000 	   49.9671
    3.5935 	   18.9770 	   23.0000 	   24.0000 	   50.3341
    3.6545 	   19.0773 	   23.0000 	   24.0000 	   50.7351
    3.8682 	   19.1723 	   23.0000 	   24.0000 	   51.1152
    3.7461 	   19.2610 	   23.0000 	   24.0000 	   51.4702
    3.8224 	   19.3507 	   23.0000 	   24.0000 	   51.8292
    3.8529 	   19.4428 	   23.0000 	   24.0000 	   52.1972
    3.7461 	   19.5428 	   23.0000 	   24.0000 	   52.5973
    3.8682 	   19.6413 	   23.0000 	   24.0000 	   52.9913
    3.9445 	   19.7420 	   23.0000 	   24.0000 	   53.3943
    3.9139 	   19.8363 	   23.0000 	   24.0000 	   53.7713
    3.9902 	   19.9363 	   23.0000 	   24.0000 	   54.1713
    3.6698 	   20.0325 	   23.0000 	   24.0000 	   54.5564
    3.6851 	   20.1323 	   23.0000 	   24.0000 	   54.9554
    4.0513 	   20.2333 	   23.0000 	   24.0000 	   55.3594
    4.0208 	   20.3240 	   23.0000 	   24.0000 	   55.7224
    4.2649 	   20.4165 	   23.0000 	   24.0000 	   56.0925
    4.0818 	   20.5123 	   23.0000 	   24.0000 	   56.4755
    3.9902 	   20.6110 	   23.0000 	   24.0000 	   56.8705
    4.2191 	   20.7063 	   23.0000 	   24.0000 	   57.2515
    4.2344 	   20.7983 	   23.0000 	   24.0000 	   57.6195
    4.1276 	   20.9000 	   23.0000 	   24.0000 	   58.0266
    4.2344 	   20.9955 	   23.0000 	   24.0000 	   58.4086
    4.1886 	   21.0890 	   23.0000 	   24.0000 	   58.7826
    3.9292 	   21.1913 	   23.0000 	   24.0000 	   59.1916
    4.2802 	   21.2818 	   23.0000 	   24.0000 	   59.5536
    4.2496 	   21.3723 	   23.0000 	   24.0000 	   59.9157
    4.2802 	   21.4685 	   23.0000 	   25.0000 	    0.3007
    4.3107 	   21.5710 	   23.0000 	   25.0000 	    0.7107
    4.0208 	   21.6735 	   23.0000 	   25.0000 	    1.1207
    4.3565 	   21.7745 	   23.0000 	   25.0000 	    1.5248
    4.4785 	   21.8760 	   23.0000 	   25.0000 	    1.9308
    4.3412 	   21.9690 	   23.0000 	   25.0000 	    2.3028
    4.3717 	   22.0613 	   23.0000 	   25.0000 	    2.6718
    4.4327 	   22.1545 	   23.0000 	   25.0000 	    3.0449
    4.4633 	   22.2530 	   23.0000 	   25.0000 	    3.4389
    4.5396 	   22.3570 	   23.0000 	   25.0000 	    3.8549
    4.4633 	   22.4615 	   23.0000 	   25.0000 	    4.2729
    4.4785 	   22.5580 	   23.0000 	   25.0000 	    4.6579
    4.4785 	   22.6570 	   23.0000 	   25.0000 	    5.0550
    4.7074 	   22.7503 	   23.0000 	   25.0000 	    5.4280
    4.6006 	   22.8493 	   23.0000 	   25.0000 	    5.8240
    4.2496 	   22.9468 	   23.0000 	   25.0000 	    6.2140
    4.6311 	   23.0400 	   23.0000 	   25.0000 	    6.5871
    4.5853 	   23.1408 	   23.0000 	   25.0000 	    6.9901
    4.5548 	   23.2470 	   23.0000 	   25.0000 	    7.4151
    4.5701 	   23.3500 	   23.0000 	   25.0000 	    7.8261
    4.7837 	   23.4425 	   23.0000 	   25.0000 	    8.1961
    4.6921 	   23.5398 	   23.0000 	   25.0000 	    8.5852
    4.5701 	   23.6370 	   23.0000 	   25.0000 	    8.9742
    4.7074 	   23.7348 	   23.0000 	   25.0000 	    9.3652
    4.9210 	   23.8328 	   23.0000 	   25.0000 	    9.7572
    4.8600 	   23.9303 	   23.0000 	   25.0000 	   10.1473
    4.9973 	   24.0293 	   23.0000 	   25.0000 	   10.5433
    4.9516 	   24.1265 	   23.0000 	   25.0000 	   10.9323
    4.9821 	   24.2243 	   23.0000 	   25.0000 	   11.3233
    4.7837 	   24.3178 	   23.0000 	   25.0000 	   11.6973
    5.0736 	   24.4120 	   23.0000 	   25.0000 	   12.0744
    4.9363 	   24.5108 	   23.0000 	   25.0000 	   12.4694
    4.9821 	   24.6138 	   23.0000 	   25.0000 	   12.8814
    5.0736 	   24.7083 	   23.0000 	   25.0000 	   13.2594
    5.0431 	   24.8060 	   23.0000 	   25.0000 	   13.6505
    5.2262 	   24.9018 	   23.0000 	   25.0000 	   14.0335
    5.1041 	   24.9973 	   23.0000 	   25.0000 	   14.4155
    5.1194 	   25.0955 	   23.0000 	   25.0000 	   14.8085
    5.2567 	   25.1910 	   23.0000 	   25.0000 	   15.1905
    5.3178 	   25.2923 	   23.0000 	   25.0000 	   15.5956
    5.3635 	   25.3945 	   23.0000 	   25.0000 	   16.0046
    5.3178 	   25.4975 	   23.0000 	   25.0000 	   16.4166
    5.3330 	   25.6135 	   23.0000 	   25.0000 	   16.8806
    5.4246 	   25.7110 	   23.0000 	   25.0000 	   17.2707
    5.4246 	   25.8080 	   23.0000 	   25.0000 	   17.6587
    5.4551 	   25.9055 	   23.0000 	   25.0000 	   18.0487
    5.3941 	   26.0093 	   23.0000 	   25.0000 	   18.4637
    5.4704 	   26.1128 	   23.0000 	   25.0000 	   18.8778
    5.5619 	   26.2185 	   23.0000 	   25.0000 	   19.3008
    5.5924 	   26.3243 	   23.0000 	   25.0000 	   19.7238
    5.4398 	   26.4253 	   23.0000 	   25.0000 	   20.1278
    5.7298 	   26.5318 	   23.0000 	   25.0000 	   20.5539
    5.3025 	   26.6295 	   23.0000 	   25.0000 	   20.9449
    5.6992 	   26.7260 	   23.0000 	   25.0000 	   21.3309
    5.7603 	   26.8240 	   23.0000 	   25.0000 	   21.7229
    5.8366 	   26.9293 	   23.0000 	   25.0000 	   22.1439
    5.8061 	   27.0290 	   23.0000 	   25.0000 	   22.5430
    5.7603 	   27.1250 	   23.0000 	   25.0000 	   22.9270
    5.8366 	   27.2223 	   23.0000 	   25.0000 	   23.3160
    5.9281 	   27.3165 	   23.0000 	   25.0000 	   23.6930
    5.9892 	   27.4123 	   23.0000 	   25.0000 	   24.0761
    5.9281 	   27.5118 	   23.0000 	   25.0000 	   24.4741
    5.9586 	   27.6195 	   23.0000 	   25.0000 	   24.9051
    5.8213 	   27.7178 	   23.0000 	   25.0000 	   25.2971
    6.0502 	   27.8220 	   23.0000 	   25.0000 	   25.7141
    6.0807 	   27.9290 	   23.0000 	   25.0000 	   26.1422
    6.2638 	   28.0363 	   23.0000 	   25.0000 	   26.5712
    6.1723 	   28.1358 	   23.0000 	   25.0000 	   26.9692
    6.2943 	   28.2425 	   23.0000 	   25.0000 	   27.3962
    6.3554 	   28.3500 	   23.0000 	   25.0000 	   27.8263
    6.2638 	   28.4498 	   23.0000 	   25.0000 	   28.2253
    6.2333 	   28.5535 	   23.0000 	   25.0000 	   28.6403
    6.4469 	   28.6535 	   23.0000 	   25.0000 	   29.0403
    6.4622 	   28.7568 	   23.0000 	   25.0000 	   29.4534
    6.4927 	   28.8648 	   23.0000 	   25.0000 	   29.8854
    6.4775 	   28.9715 	   23.0000 	   25.0000 	   30.3124
    6.7369 	   29.0783 	   23.0000 	   25.0000 	   30.7394
    6.5232 	   29.1875 	   23.0000 	   25.0000 	   31.1765
    6.7521 	   29.2953 	   23.0000 	   25.0000 	   31.6075
    6.8284 	   29.3963 	   23.0000 	   25.0000 	   32.0115
    6.7521 	   29.5010 	   23.0000 	   25.0000 	   32.4305
    6.7216 	   29.6095 	   23.0000 	   25.0000 	   32.8646
    6.8437 	   29.7088 	   23.0000 	   25.0000 	   33.2616
    6.9200 	   29.8130 	   23.0000 	   25.0000 	   33.6786
    6.8742 	   29.9115 	   23.0000 	   25.0000 	   34.0726
    7.0115 	   30.0183 	   23.0000 	   25.0000 	   34.4996
    6.9810 	   30.1290 	   23.0000 	   25.0000 	   34.9427
    7.0726 	   30.2408 	   23.0000 	   25.0000 	   35.3897
    7.1641 	   30.3503 	   23.0000 	   25.0000 	   35.8277
    7.0268 	   30.4493 	   23.0000 	   25.0000 	   36.2237
    7.2557 	   30.5468 	   23.0000 	   25.0000 	   36.6138
    7.4235 	   30.6458 	   23.0000 	   25.0000 	   37.0098
    7.4693 	   30.7525 	   23.0000 	   25.0000 	   37.4368
    7.3014 	   30.8608 	   23.0000 	   25.0000 	   37.8698
    7.3930 	   30.9600 	   23.0000 	   25.0000 	   38.2669
    7.5151 	   31.0605 	   23.0000 	   25.0000 	   38.6689
    7.6524 	   31.1665 	   23.0000 	   25.0000 	   39.0929
    7.7134 	   31.2730 	   23.0000 	   25.0000 	   39.5189
    7.7592 	   31.3760 	   23.0000 	   25.0000 	   39.9310
    7.8965 	   31.4808 	   23.0000 	   25.0000 	   40.3500
    7.7897 	   31.5883 	   23.0000 	   25.0000 	   40.7800
    7.8508 	   31.6913 	   23.0000 	   25.0000 	   41.1920
    7.8660 	   31.7918 	   23.0000 	   25.0000 	   41.5941
    8.0339 	   31.9013 	   23.0000 	   25.0000 	   42.0321
    8.1407 	   32.0118 	   23.0000 	   25.0000 	   42.4741
    8.0339 	   32.1250 	   23.0000 	   25.0000 	   42.9261
    8.2475 	   32.2325 	   23.0000 	   25.0000 	   43.3562
    8.2170 	   32.3400 	   23.0000 	   25.0000 	   43.7862
    8.3848 	   32.4463 	   23.0000 	   25.0000 	   44.2112
    8.5222 	   32.5490 	   23.0000 	   25.0000 	   44.6222
    8.5222 	   32.6530 	   23.0000 	   25.0000 	   45.0383
    8.6137 	   32.7533 	   23.0000 	   25.0000 	   45.4393
    8.6595 	   32.8558 	   23.0000 	   25.0000 	   45.8493
    8.5374 	   32.9568 	   23.0000 	   25.0000 	   46.2533
    8.8426 	   33.0605 	   23.0000 	   25.0000 	   46.6683
    8.7053 	   33.1632 	   23.0000 	   25.0000 	   47.0794
    8.8884 	   33.2650 	   23.0000 	   25.0000 	   47.4864
    8.8884 	   33.3658 	   23.0000 	   25.0000 	   47.8894
    8.9799 	   33.4683 	   23.0000 	   25.0000 	   48.2994
    9.1325 	   33.5728 	   23.0000 	   25.0000 	   48.7175
    9.2546 	   33.6765 	   23.0000 	   25.0000 	   49.1325
    9.5445 	   33.7770 	   23.0000 	   25.0000 	   49.5345
    9.4835 	   33.8800 	   23.0000 	   25.0000 	   49.9465
    9.5598 	   33.9915 	   23.0000 	   25.0000 	   50.3926
    9.6056 	   34.0950 	   23.0000 	   25.0000 	   50.8066
    9.7429 	   34.2090 	   23.0000 	   25.0000 	   51.2626
    9.9260 	   34.3175 	   23.0000 	   25.0000 	   51.6966
    9.9413 	   34.4388 	   23.0000 	   25.0000 	   52.1817
   10.1091 	   34.5408 	   23.0000 	   25.0000 	   52.5897
   10.2007 	   34.6558 	   23.0000 	   25.0000 	   53.0497
   10.3990 	   34.7588 	   23.0000 	   25.0000 	   53.4617
   10.5058 	   34.8635 	   23.0000 	   25.0000 	   53.8808
   10.7195 	   34.9668 	   23.0000 	   25.0000 	   54.2938
   10.6584 	   35.0788 	   23.0000 	   25.0000 	   54.7418
   10.7958 	   35.1870 	   23.0000 	   25.0000 	   55.1748
   10.8873 	   35.2920 	   23.0000 	   25.0000 	   55.5949
   11.0246 	   35.3998 	   23.0000 	   25.0000 	   56.0259
   11.1162 	   35.5083 	   23.0000 	   25.0000 	   56.4599
   11.2688 	   35.6230 	   23.0000 	   25.0000 	   56.9189
   11.3451 	   35.7380 	   23.0000 	   25.0000 	   57.3790
   11.5129 	   35.8535 	   23.0000 	   25.0000 	   57.8410
   11.6960 	   35.9625 	   23.0000 	   25.0000 	   58.2770
   11.8029 	   36.0765 	   23.0000 	   25.0000 	   58.7330
   11.9554 	   36.1875 	   23.0000 	   25.0000 	   59.1771
   12.3217 	   36.2935 	   23.0000 	   25.0000 	   59.6011
   12.3522 	   36.3990 	   23.0000 	   26.0000 	    0.0231
   12.5200 	   36.5130 	   23.0000 	   26.0000 	    0.4781
   12.5353 	   36.6208 	   23.0000 	   26.0000 	    0.9092
   12.7794 	   36.7248 	   23.0000 	   26.0000 	    1.3252
   12.9625 	   36.8355 	   23.0000 	   26.0000 	    1.7682
   13.1914 	   36.9455 	   23.0000 	   26.0000 	    2.2082
   12.9931 	   37.0498 	   23.0000 	   26.0000 	    2.6253
   13.4051 	   37.1548 	   23.0000 	   26.0000 	    3.0453
   13.6645 	   37.2605 	   23.0000 	   26.0000 	    3.4683
   13.8476 	   37.3740 	   23.0000 	   26.0000 	    3.9223
   14.0764 	   37.4848 	   23.0000 	   26.0000 	    4.3654
   14.3206 	   37.5878 	   23.0000 	   26.0000 	    4.7774
   14.4579 	   37.6963 	   23.0000 	   26.0000 	    5.2114
   14.6105 	   37.8015 	   23.0000 	   26.0000 	    5.6324
   14.5495 	   37.9043 	   23.0000 	   26.0000 	    6.0435
   14.7631 	   38.0110 	   23.0000 	   26.0000 	    6.4695
   14.8852 	   38.1153 	   23.0000 	   26.0000 	    6.8875
   15.0530 	   38.2210 	   23.0000 	   26.0000 	    7.3105
   15.4345 	   38.3280 	   23.0000 	   26.0000 	    7.7386
   15.4498 	   38.4393 	   23.0000 	   26.0000 	    8.1836
   15.4192 	   38.5470 	   23.0000 	   26.0000 	    8.6146
   15.2667 	   38.6593 	   23.0000 	   26.0000 	    9.0636
   15.0683 	   38.7660 	   23.0000 	   26.0000 	    9.4907
   14.9920 	   38.8728 	   23.0000 	   26.0000 	    9.9177
   14.9920 	   38.9828 	   23.0000 	   26.0000 	   10.3577
   15.0225 	   39.0928 	   23.0000 	   26.0000 	   10.7977
   14.7936 	   39.2003 	   23.0000 	   26.0000 	   11.2277
   14.6105 	   39.3075 	   23.0000 	   26.0000 	   11.6568
   14.6105 	   39.4143 	   23.0000 	   26.0000 	   12.0838
   14.7173 	   39.5213 	   23.0000 	   26.0000 	   12.5118
   14.7021 	   39.6280 	   23.0000 	   26.0000 	   12.9388
   14.4884 	   39.7388 	   23.0000 	   26.0000 	   13.3819
   14.6105 	   39.8508 	   23.0000 	   26.0000 	   13.8299
   14.5647 	   39.9608 	   23.0000 	   26.0000 	   14.2699
   14.4732 	   40.0708 	   23.0000 	   26.0000 	   14.7099
   14.4274 	   40.1783 	   23.0000 	   26.0000 	   15.1400
   14.5495 	   40.2933 	   23.0000 	   26.0000 	   15.6000
   14.3816 	   40.4030 	   23.0000 	   26.0000 	   16.0390
   14.3053 	   40.5110 	   23.0000 	   26.0000 	   16.4711
   14.3816 	   40.6195 	   23.0000 	   26.0000 	   16.9051
   14.3816 	   40.7283 	   23.0000 	   26.0000 	   17.3401
   14.2138 	   40.8365 	   23.0000 	   26.0000 	   17.7721
   14.2290 	   40.9465 	   23.0000 	   26.0000 	   18.2122
   14.2138 	   41.0585 	   23.0000 	   26.0000 	   18.6602
   14.2596 	   41.1735 	   23.0000 	   26.0000 	   19.1202
   14.1070 	   41.2850 	   23.0000 	   26.0000 	   19.5662
   13.9239 	   41.3938 	   23.0000 	   26.0000 	   20.0013
   14.1985 	   41.5040 	   23.0000 	   26.0000 	   20.4423
   14.2290 	   41.6153 	   23.0000 	   26.0000 	   20.8873
   14.1222 	   41.7248 	   23.0000 	   26.0000 	   21.3253
   13.9391 	   41.8335 	   23.0000 	   26.0000 	   21.7604
   13.9849 	   41.9448 	   23.0000 	   26.0000 	   22.2054
   14.1070 	   42.0573 	   23.0000 	   26.0000 	   22.6554
   13.7865 	   42.1660 	   23.0000 	   26.0000 	   23.0904
   13.9544 	   42.2745 	   23.0000 	   26.0000 	   23.5245
   13.9239 	   42.3840 	   23.0000 	   26.0000 	   23.9625
   14.0764 	   42.4935 	   23.0000 	   26.0000 	   24.4005
   14.0764 	   42.6090 	   23.0000 	   26.0000 	   24.8625
   14.0307 	   42.7218 	   23.0000 	   26.0000 	   25.3136
   14.0917 	   42.8303 	   23.0000 	   26.0000 	   25.7476
   13.7255 	   42.9395 	   23.0000 	   26.0000 	   26.1846
   13.8170 	   43.0490 	   23.0000 	   26.0000 	   26.6226
   13.9086 	   43.1600 	   23.0000 	   26.0000 	   27.0667
   13.9849 	   43.2705 	   23.0000 	   26.0000 	   27.5087
   13.8781 	   43.3815 	   23.0000 	   26.0000 	   27.9527
   13.8018 	   43.4918 	   23.0000 	   26.0000 	   28.3937
   13.9544 	   43.6038 	   23.0000 	   26.0000 	   28.8418
   13.7255 	   43.7178 	   23.0000 	   26.0000 	   29.2978
   13.7865 	   43.8278 	   23.0000 	   26.0000 	   29.7378
   13.8476 	   43.9378 	   23.0000 	   26.0000 	   30.1778
   13.7713 	   44.0498 	   23.0000 	   26.0000 	   30.6259
   13.8628 	   44.1623 	   23.0000 	   26.0000 	   31.0759
   13.8781 	   44.2733 	   23.0000 	   26.0000 	   31.5199
   13.8323 	   44.3843 	   23.0000 	   26.0000 	   31.9639
   13.8170 	   44.4958 	   23.0000 	   26.0000 	   32.4100
   13.7255 	   44.6055 	   23.0000 	   26.0000 	   32.8490
   13.7713 	   44.7180 	   23.0000 	   26.0000 	   33.2990
   13.8170 	   44.8283 	   23.0000 	   26.0000 	   33.7390
   13.6797 	   44.9380 	   23.0000 	   26.0000 	   34.1791
   13.8781 	   45.0495 	   23.0000 	   26.0000 	   34.6251
   13.7102 	   45.1598 	   23.0000 	   26.0000 	   35.0651
   13.6187 	   45.2695 	   23.0000 	   26.0000 	   35.5041
   13.6492 	   45.3800 	   23.0000 	   26.0000 	   35.9462
   13.6339 	   45.4903 	   23.0000 	   26.0000 	   36.3872
   13.7255 	   45.6008 	   23.0000 	   26.0000 	   36.8292
   13.5424 	   45.7160 	   23.0000 	   26.0000 	   37.2902
   13.6645 	   45.8358 	   23.0000 	   26.0000 	   37.7693
   13.5882 	   45.9513 	   23.0000 	   26.0000 	   38.2313
   13.6492 	   46.0635 	   23.0000 	   26.0000 	   38.6803
   13.6797 	   46.1760 	   23.0000 	   26.0000 	   39.1303
   13.6339 	   46.2900 	   23.0000 	   26.0000 	   39.5864
   13.6034 	   46.4033 	   23.0000 	   26.0000 	   40.0394
   13.5729 	   46.5183 	   23.0000 	   26.0000 	   40.4994
   13.5576 	   46.6308 	   23.0000 	   26.0000 	   40.9495
   13.5576 	   46.7438 	   23.0000 	   26.0000 	   41.4015
   13.6950 	   46.8570 	   23.0000 	   26.0000 	   41.8545
   13.5729 	   46.9710 	   23.0000 	   26.0000 	   42.3105
   13.5882 	   47.0860 	   23.0000 	   26.0000 	   42.7706
   13.2830 	   47.1998 	   23.0000 	   26.0000 	   43.2256
   13.5729 	   47.3135 	   23.0000 	   26.0000 	   43.6806
   13.4813 	   47.4270 	   23.0000 	   26.0000 	   44.1346
   13.4966 	   47.5413 	   23.0000 	   26.0000 	   44.5917
   13.5882 	   47.6553 	   23.0000 	   26.0000 	   45.0477
   13.5424 	   47.7708 	   23.0000 	   26.0000 	   45.5097
   13.6034 	   47.8915 	   23.0000 	   26.0000 	   45.9927
   13.4661 	   48.0108 	   23.0000 	   26.0000 	   46.4698
   13.4356 	   48.1275 	   23.0000 	   26.0000 	   46.9368
   13.4966 	   48.2443 	   23.0000 	   26.0000 	   47.4038
   13.4203 	   48.3588 	   23.0000 	   26.0000 	   47.8618
   13.5119 	   48.4740 	   23.0000 	   26.0000 	   48.3229
   13.3135 	   48.5885 	   23.0000 	   26.0000 	   48.7809
   13.4203 	   48.7040 	   23.0000 	   26.0000 	   49.2429
   13.4051 	   48.8293 	   23.0000 	   26.0000 	   49.7440
   13.4661 	   48.9520 	   23.0000 	   26.0000 	   50.2350
   13.0846 	   49.0683 	   23.0000 	   26.0000 	   50.7000
   13.4813 	   49.1900 	   23.0000 	   26.0000 	   51.1870
   13.2982 	   49.3073 	   23.0000 	   26.0000 	   51.6561
   13.4508 	   49.4300 	   23.0000 	   26.0000 	   52.1471
   13.3593 	   49.5455 	   23.0000 	   26.0000 	   52.6081
   13.3440 	   49.6638 	   23.0000 	   26.0000 	   53.0811
   13.3745 	   49.7798 	   23.0000 	   26.0000 	   53.5452
   13.3288 	   49.9000 	   23.0000 	   26.0000 	   54.0262
   13.3745 	   50.0155 	   23.0000 	   26.0000 	   54.4882
   13.3593 	   50.1323 	   23.0000 	   26.0000 	   54.9552
   13.3440 	   50.2545 	   23.0000 	   26.0000 	   55.4443
   13.3135 	   50.3760 	   23.0000 	   26.0000 	   55.9303
   13.0083 	   50.4938 	   23.0000 	   26.0000 	   56.4013
   13.3593 	   50.6105 	   23.0000 	   26.0000 	   56.8684
   13.5271 	   50.7263 	   23.0000 	   26.0000 	   57.3314
   13.4203 	   50.8430 	   23.0000 	   26.0000 	   57.7984
   13.3440 	   50.9618 	   23.0000 	   26.0000 	   58.2734
   13.4356 	   51.0803 	   23.0000 	   26.0000 	   58.7475
   13.3745 	   51.1993 	   23.0000 	   26.0000 	   59.2235
   13.3288 	   51.3175 	   23.0000 	   26.0000 	   59.6965
   13.2677 	   51.4373 	   23.0000 	   27.0000 	    0.1755
   13.4051 	   51.5565 	   23.0000 	   27.0000 	    0.6526
   13.3593 	   51.6768 	   23.0000 	   27.0000 	    1.1336
   13.2219 	   51.8018 	   23.0000 	   27.0000 	    1.6336
   13.2219 	   51.9190 	   23.0000 	   27.0000 	    2.1027
   13.2219 	   52.0385 	   23.0000 	   27.0000 	    2.5807
   13.1456 	   52.1648 	   23.0000 	   27.0000 	    3.0857
   13.3288 	   52.2830 	   23.0000 	   27.0000 	    3.5587
   13.2982 	   52.4028 	   23.0000 	   27.0000 	    4.0378
   13.0236 	   52.5195 	   23.0000 	   27.0000 	    4.5048
   13.2525 	   52.6415 	   23.0000 	   27.0000 	    4.9928
   13.1151 	   52.7590 	   23.0000 	   27.0000 	    5.4629
   13.2830 	   52.8768 	   23.0000 	   27.0000 	    5.9339
   13.3593 	   52.9965 	   23.0000 	   27.0000 	    6.4129
   13.3135 	   53.1148 	   23.0000 	   27.0000 	    6.8859
   13.2067 	   53.2423 	   23.0000 	   27.0000 	    7.3960
   13.2677 	   53.3605 	   23.0000 	   27.0000 	    7.8690
   13.1914 	   53.4780 	   23.0000 	   27.0000 	    8.3390
   13.2525 	   53.5958 	   23.0000 	   27.0000 	    8.8100
   13.1456 	   53.7195 	   23.0000 	   27.0000 	    9.3051
   13.2372 	   53.8458 	   23.0000 	   27.0000 	    9.8101
   13.2525 	   53.9648 	   23.0000 	   27.0000 	   10.2851
   13.2372 	   54.0873 	   23.0000 	   27.0000 	   10.7752
   13.1609 	   54.2158 	   23.0000 	   27.0000 	   11.2892
   13.1456 	   54.3363 	   23.0000 	   27.0000 	   11.7712
   13.3440 	   54.4598 	   23.0000 	   27.0000 	   12.2652
   13.0083 	   54.5800 	   23.0000 	   27.0000 	   12.7463
   13.0999 	   54.7028 	   23.0000 	   27.0000 	   13.2373
   13.0846 	   54.8225 	   23.0000 	   27.0000 	   13.7163
   13.1914 	   54.9413 	   23.0000 	   27.0000 	   14.1914
   13.1762 	   55.0613 	   23.0000 	   27.0000 	   14.6714
   13.2525 	   55.1800 	   23.0000 	   27.0000 	   15.1464
   13.2525 	   55.3048 	   23.0000 	   27.0000 	   15.6454
   13.2525 	   55.4338 	   23.0000 	   27.0000 	   16.1615
   13.2677 	   55.5590 	   23.0000 	   27.0000 	   16.6625
   13.0541 	   55.6843 	   23.0000 	   27.0000 	   17.1635
   12.2911 	   55.8118 	   23.0000 	   27.0000 	   17.6735
   11.6503 	   55.9410 	   23.0000 	   27.0000 	   18.1906
   11.2383 	   56.0678 	   23.0000 	   27.0000 	   18.6976
   10.8721 	   56.2013 	   23.0000 	   27.0000 	   19.2316
   10.3227 	   56.3258 	   23.0000 	   27.0000 	   19.7297
    9.7887 	   56.4468 	   23.0000 	   27.0000 	   20.2137
    9.6361 	   56.5763 	   23.0000 	   27.0000 	   20.7317
    9.2851 	   56.7000 	   23.0000 	   27.0000 	   21.2268
    9.0562 	   56.8243 	   23.0000 	   27.0000 	   21.7238
    8.9952 	   56.9455 	   23.0000 	   27.0000 	   22.2088
    8.6748 	   57.0738 	   23.0000 	   27.0000 	   22.7218
    8.0186 	   57.2128 	   23.0000 	   27.0000 	   23.2779
    8.0949 	   57.3425 	   23.0000 	   27.0000 	   23.7969
    7.9423 	   57.4713 	   23.0000 	   27.0000 	   24.3119
    7.7897 	   57.5938 	   23.0000 	   27.0000 	   24.8020
    7.6677 	   57.7188 	   23.0000 	   27.0000 	   25.3020
    7.4998 	   57.8448 	   23.0000 	   27.0000 	   25.8060
    7.0878 	   57.9680 	   23.0000 	   27.0000 	   26.2990
    7.1794 	   58.0943 	   23.0000 	   27.0000 	   26.8041
    7.1641 	   58.2163 	   23.0000 	   27.0000 	   27.2921
    6.9352 	   58.3410 	   23.0000 	   27.0000 	   27.7901
    6.8589 	   58.4655 	   23.0000 	   27.0000 	   28.2882
    6.6300 	   58.5913 	   23.0000 	   27.0000 	   28.7912
    6.6758 	   58.7175 	   23.0000 	   27.0000 	   29.2962
    6.1418 	   58.8405 	   23.0000 	   27.0000 	   29.7882
    6.3554 	   58.9705 	   23.0000 	   27.0000 	   30.3083
    6.3859 	   59.1028 	   23.0000 	   27.0000 	   30.8373
    6.4164 	   59.2313 	   23.0000 	   27.0000 	   31.3513
    6.2028 	   59.3590 	   23.0000 	   27.0000 	   31.8624
    6.2028 	   59.4823 	   23.0000 	   27.0000 	   32.3554
    5.9129 	   59.6128 	   23.0000 	   27.0000 	   32.8774
    6.0807 	   59.7395 	   23.0000 	   27.0000 	   33.3834
    5.8824 	   59.8653 	   23.0000 	   27.0000 	   33.8875
    5.6992 	   59.9895 	   23.0000 	   27.0000 	   34.3845
    5.5009 	   60.1138 	   23.0000 	   27.0000 	   34.8815
    5.7298 	   60.2420 	   23.0000 	   27.0000 	   35.3946
    5.5772 	   60.3718 	   23.0000 	   27.0000 	   35.9136
    5.4551 	   60.5018 	   23.0000 	   27.0000 	   36.4336
    5.3788 	   60.6298 	   23.0000 	   27.0000 	   36.9457
    5.3330 	   60.7530 	   23.0000 	   27.0000 	   37.4387
    5.3788 	   60.8808 	   23.0000 	   27.0000 	   37.9497
    5.1804 	   61.0123 	   23.0000 	   27.0000 	   38.4757
    5.2110 	   61.1390 	   23.0000 	   27.0000 	   38.9828
    5.2110 	   61.2705 	   23.0000 	   27.0000 	   39.5088
    4.9058 	   61.4025 	   23.0000 	   27.0000 	   40.0368
    4.8905 	   61.5305 	   23.0000 	   27.0000 	   40.5489
    4.9668 	   61.6568 	   23.0000 	   27.0000 	   41.0539
    4.8295 	   61.7845 	   23.0000 	   27.0000 	   41.5649
    4.8905 	   61.9135 	   23.0000 	   27.0000 	   42.0809
    4.7837 	   62.0410 	   23.0000 	   27.0000 	   42.5910
    4.7837 	   62.1695 	   23.0000 	   27.0000 	   43.1050
    4.7837 	   62.3005 	   23.0000 	   27.0000 	   43.6290
    4.7532 	   62.4285 	   23.0000 	   27.0000 	   44.1411
    4.5243 	   62.5540 	   23.0000 	   27.0000 	   44.6431
    4.5396 	   62.6840 	   23.0000 	   27.0000 	   45.1621
    4.5701 	   62.8153 	   23.0000 	   27.0000 	   45.6872
    4.6921 	   62.9455 	   23.0000 	   27.0000 	   46.2082
    4.4938 	   63.0718 	   23.0000 	   27.0000 	   46.7132
    4.2191 	   63.2013 	   23.0000 	   27.0000 	   47.2312
    4.5396 	   63.3360 	   23.0000 	   27.0000 	   47.7703
    4.4480 	   63.4658 	   23.0000 	   27.0000 	   48.2893
    4.2802 	   63.5963 	   23.0000 	   27.0000 	   48.8113
    4.2954 	   63.7285 	   23.0000 	   27.0000 	   49.3404
    4.2191 	   63.8620 	   23.0000 	   27.0000 	   49.8744
    4.4785 	   63.9903 	   23.0000 	   27.0000 	   50.3874
    4.2191 	   64.1230 	   23.0000 	   27.0000 	   50.9185
    4.0360 	   64.2590 	   23.0000 	   27.0000 	   51.4625
    4.1123 	   64.3923 	   23.0000 	   27.0000 	   51.9955
    3.9445 	   64.5218 	   23.0000 	   27.0000 	   52.5135
    4.2191 	   64.6553 	   23.0000 	   27.0000 	   53.0476
    4.0665 	   64.7900 	   23.0000 	   27.0000 	   53.5866
    4.0055 	   64.9205 	   23.0000 	   27.0000 	   54.1086
    4.0665 	   65.0520 	   23.0000 	   27.0000 	   54.6347
    3.7919 	   65.1810 	   23.0000 	   27.0000 	   55.1507
    3.9597 	   65.3092 	   23.0000 	   27.0000 	   55.6637
    3.8376 	   65.4388 	   23.0000 	   27.0000 	   56.1818
    3.8224 	   65.5703 	   23.0000 	   27.0000 	   56.7078
    3.8682 	   65.7045 	   23.0000 	   27.0000 	   57.2448
    3.7766 	   65.8353 	   23.0000 	   27.0000 	   57.7678
    3.7308 	   65.9653 	   23.0000 	   27.0000 	   58.2879
    3.7766 	   66.0980 	   23.0000 	   27.0000 	   58.8189
    3.7613 	   66.2308 	   23.0000 	   27.0000 	   59.3499
    3.8682 	   66.3605 	   23.0000 	   27.0000 	   59.8690
    3.5935 	   66.4948 	   23.0000 	   28.0000 	    0.4060
    3.6088 	   66.6295 	   23.0000 	   28.0000 	    0.9450
    3.7156 	   66.7625 	   23.0000 	   28.0000 	    1.4771
    3.6545 	   66.8938 	   23.0000 	   28.0000 	    2.0021
    3.7308 	   67.0265 	   23.0000 	   28.0000 	    2.5321
    3.5019 	   67.1615 	   23.0000 	   28.0000 	    3.0721
    3.5172 	   67.2988 	   23.0000 	   28.0000 	    3.6212
    3.4257 	   67.4320 	   23.0000 	   28.0000 	    4.1542
    3.4562 	   67.5623 	   23.0000 	   28.0000 	    4.6752
    3.4104 	   67.6943 	   23.0000 	   28.0000 	    5.2033
    3.4104 	   67.8333 	   23.0000 	   28.0000 	    5.7593
    3.3341 	   67.9678 	   23.0000 	   28.0000 	    6.2973
    3.3646 	   68.1025 	   23.0000 	   28.0000 	    6.8364
    3.3799 	   68.2335 	   23.0000 	   28.0000 	    7.3604
    3.0289 	   68.3655 	   23.0000 	   28.0000 	    7.8884
    3.4257 	   68.4978 	   23.0000 	   28.0000 	    8.4175
    2.9374 	   68.6330 	   23.0000 	   28.0000 	    8.9585
    3.2120 	   68.7650 	   23.0000 	   28.0000 	    9.4865
    3.2425 	   68.8978 	   23.0000 	   28.0000 	   10.0175
    3.0442 	   69.0320 	   23.0000 	   28.0000 	   10.5546
    3.1205 	   69.1660 	   23.0000 	   28.0000 	   11.0906
    3.1510 	   69.2988 	   23.0000 	   28.0000 	   11.6216
    2.7848 	   69.4318 	   23.0000 	   28.0000 	   12.1537
    3.0747 	   69.5723 	   23.0000 	   28.0000 	   12.7157
    3.0747 	   69.7088 	   23.0000 	   28.0000 	   13.2617
    2.9526 	   69.8480 	   23.0000 	   28.0000 	   13.8188
    2.6627 	   69.9830 	   23.0000 	   28.0000 	   14.3588
    2.8458 	   70.1173 	   23.0000 	   28.0000 	   14.8958
    2.9831 	   70.2528 	   23.0000 	   28.0000 	   15.4379
    2.9221 	   70.3855 	   23.0000 	   28.0000 	   15.9689
    2.8153 	   70.5185 	   23.0000 	   28.0000 	   16.5009
    2.9374 	   70.6533 	   23.0000 	   28.0000 	   17.0399
    2.8611 	   70.7880 	   23.0000 	   28.0000 	   17.5790
    2.8305 	   70.9255 	   23.0000 	   28.0000 	   18.1290
    2.9068 	   71.0573 	   23.0000 	   28.0000 	   18.6560
    2.6474 	   71.1895 	   23.0000 	   28.0000 	   19.1851
    2.8458 	   71.3205 	   23.0000 	   28.0000 	   19.7091
    2.7237 	   71.4525 	   23.0000 	   28.0000 	   20.2361
    2.6932 	   71.5918 	   23.0000 	   28.0000 	   20.7932
    2.6017 	   71.7270 	   23.0000 	   28.0000 	   21.3342
    2.7085 	   71.8645 	   23.0000 	   28.0000 	   21.8842
    2.6627 	   71.9998 	   23.0000 	   28.0000 	   22.4253
    2.5406 	   72.1375 	   23.0000 	   28.0000 	   22.9763
    2.5559 	   72.2790 	   23.0000 	   28.0000 	   23.5423
    2.5711 	   72.4153 	   23.0000 	   28.0000 	   24.0873
    2.6322 	   72.5523 	   23.0000 	   28.0000 	   24.6354
    2.5406 	   72.6868 	   23.0000 	   28.0000 	   25.1734
    2.5864 	   72.8243 	   23.0000 	   28.0000 	   25.7234
    2.5254 	   72.9588 	   23.0000 	   28.0000 	   26.2615
    2.5711 	   73.0943 	   23.0000 	   28.0000 	   26.8035
    2.4948 	   73.2310 	   23.0000 	   28.0000 	   27.3505
    2.4033 	   73.3678 	   23.0000 	   28.0000 	   27.8976
    2.3728 	   73.5048 	   23.0000 	   28.0000 	   28.4456
    2.3270 	   73.6403 	   23.0000 	   28.0000 	   28.9876
    2.3575 	   73.7763 	   23.0000 	   28.0000 	   29.5317
    2.4643 	   73.9130 	   23.0000 	   28.0000 	   30.0787
    2.3270 	   74.0513 	   23.0000 	   28.0000 	   30.6317
    2.2354 	   74.1898 	   23.0000 	   28.0000 	   31.1858
    2.2965 	   74.3255 	   23.0000 	   28.0000 	   31.7288
    2.2660 	   74.4622 	   23.0000 	   28.0000 	   32.2758
    2.2812 	   74.5973 	   23.0000 	   28.0000 	   32.8158
    2.1592 	   74.7327 	   23.0000 	   28.0000 	   33.3579
    2.3117 	   74.8688 	   23.0000 	   28.0000 	   33.9019
    2.1897 	   75.0088 	   23.0000 	   28.0000 	   34.4619
    2.0523 	   75.1463 	   23.0000 	   28.0000 	   35.0120
    2.0981 	   75.2873 	   23.0000 	   28.0000 	   35.5760
    2.0829 	   75.4293 	   23.0000 	   28.0000 	   36.1440
    2.1592 	   75.5663 	   23.0000 	   28.0000 	   36.6921
    1.9455 	   75.7103 	   23.0000 	   28.0000 	   37.2681
    2.0066 	   75.8485 	   23.0000 	   28.0000 	   37.8201
    2.0371 	   75.9848 	   23.0000 	   28.0000 	   38.3652
    2.0829 	   76.1220 	   23.0000 	   28.0000 	   38.9142
    1.8692 	   76.2700 	   23.0000 	   28.0000 	   39.5062
    1.8692 	   76.4100 	   23.0000 	   28.0000 	   40.0663
    1.9303 	   76.5473 	   23.0000 	   28.0000 	   40.6153
    1.8997 	   76.6888 	   23.0000 	   28.0000 	   41.1813
    1.9150 	   76.8275 	   23.0000 	   28.0000 	   41.7364
    1.8082 	   76.9660 	   23.0000 	   28.0000 	   42.2904
    1.6556 	   77.1043 	   23.0000 	   28.0000 	   42.8434
    1.8845 	   77.2440 	   23.0000 	   28.0000 	   43.4025
    1.8235 	   77.3888 	   23.0000 	   28.0000 	   43.9815
    1.7777 	   77.5270 	   23.0000 	   28.0000 	   44.5345
    1.7319 	   77.6660 	   23.0000 	   28.0000 	   45.0905
    1.7166 	   77.8108 	   23.0000 	   28.0000 	   45.6696
    1.9303 	   77.9535 	   23.0000 	   28.0000 	   46.2406
    1.7624 	   78.0953 	   23.0000 	   28.0000 	   46.8076
    1.6709 	   78.2353 	   23.0000 	   28.0000 	   47.3677
    1.8692 	   78.3770 	   23.0000 	   28.0000 	   47.9347
    1.7319 	   78.5175 	   23.0000 	   28.0000 	   48.4967
    1.6709 	   78.6562 	   23.0000 	   28.0000 	   49.0518
    1.6556 	   78.7952 	   23.0000 	   28.0000 	   49.6078
    1.6251 	   78.9355 	   23.0000 	   28.0000 	   50.1688
    1.5488 	   79.0790 	   23.0000 	   28.0000 	   50.7429
    1.5488 	   79.2178 	   23.0000 	   28.0000 	   51.2979
    1.6403 	   79.3605 	   23.0000 	   28.0000 	   51.8689
    1.5183 	   79.5038 	   23.0000 	   28.0000 	   52.4420
    1.5030 	   79.6435 	   23.0000 	   28.0000 	   53.0010
    1.4878 	   79.7828 	   23.0000 	   28.0000 	   53.5580
    1.4115 	   79.9225 	   23.0000 	   28.0000 	   54.1171
    1.5183 	   80.0688 	   23.0000 	   28.0000 	   54.7021
    1.4267 	   80.2098 	   23.0000 	   28.0000 	   55.2651
    1.2741 	   80.3495 	   23.0000 	   28.0000 	   55.8242
    1.4725 	   80.4905 	   23.0000 	   28.0000 	   56.3882
    1.5335 	   80.6330 	   23.0000 	   28.0000 	   56.9582
    1.3962 	   80.7738 	   23.0000 	   28.0000 	   57.5213
    1.4420 	   80.9163 	   23.0000 	   28.0000 	   58.0913
    1.2894 	   81.0563 	   23.0000 	   28.0000 	   58.6513
    1.1521 	   81.1963 	   23.0000 	   28.0000 	   59.2114
    1.2589 	   81.3348 	   23.0000 	   28.0000 	   59.7654
    1.1368 	   81.4735 	   23.0000 	   29.0000 	    0.3204
    1.2131 	   81.6133 	   23.0000 	   29.0000 	    0.8795
    1.2589 	   81.7543 	   23.0000 	   29.0000 	    1.4435
    1.3046 	   81.8938 	   23.0000 	   29.0000 	    2.0015
    1.2741 	   82.0343 	   23.0000 	   29.0000 	    2.5635
    1.1063 	   82.1730 	   23.0000 	   29.0000 	    3.1186
    1.1978 	   82.3128 	   23.0000 	   29.0000 	    3.6776
    1.1215 	   82.4530 	   23.0000 	   29.0000 	    4.2386
    1.1978 	   82.5928 	   23.0000 	   29.0000 	    4.7977
    1.0300 	   82.7320 	   23.0000 	   29.0000 	    5.3547
    0.9995 	   82.8725 	   23.0000 	   29.0000 	    5.9167
    1.1368 	   83.0150 	   23.0000 	   29.0000 	    6.4868
    1.0910 	   83.1553 	   23.0000 	   29.0000 	    7.0478
    1.0300 	   83.2965 	   23.0000 	   29.0000 	    7.6128
    0.9232 	   83.4370 	   23.0000 	   29.0000 	    8.1749
    1.0300 	   83.5780 	   23.0000 	   29.0000 	    8.7389
    0.8469 	   83.7193 	   23.0000 	   29.0000 	    9.3039
    0.8774 	   83.8605 	   23.0000 	   29.0000 	    9.8690
    0.8469 	   84.0020 	   23.0000 	   29.0000 	   10.4350
    0.9537 	   84.1468 	   23.0000 	   29.0000 	   11.0140
    0.7401 	   84.2925 	   23.0000 	   29.0000 	   11.5971
    0.9384 	   84.4335 	   23.0000 	   29.0000 	   12.1611
    0.9079 	   84.5750 	   23.0000 	   29.0000 	   12.7261
    0.7706 	   84.7165 	   23.0000 	   29.0000 	   13.2922
    0.8469 	   84.8573 	   23.0000 	   29.0000 	   13.8552
    0.7248 	   84.9988 	   23.0000 	   29.0000 	   14.4212
    0.7401 	   85.1408 	   23.0000 	   29.0000 	   14.9893
    0.7401 	   85.2830 	   23.0000 	   29.0000 	   15.5583
    0.6180 	   85.4248 	   23.0000 	   29.0000 	   16.1253
    0.6485 	   85.5673 	   23.0000 	   29.0000 	   16.6954
    0.5722 	   85.7100 	   23.0000 	   29.0000 	   17.2664
    0.5264 	   85.8530 	   23.0000 	   29.0000 	   17.8384
    0.4044 	   85.9955 	   23.0000 	   29.0000 	   18.4085
    0.6180 	   86.1395 	   23.0000 	   29.0000 	   18.9845
    0.4349 	   86.2833 	   23.0000 	   29.0000 	   19.5595
    0.5112 	   86.4288 	   23.0000 	   29.0000 	   20.1416
    0.4349 	   86.5725 	   23.0000 	   29.0000 	   20.7166
    0.3128 	   86.7163 	   23.0000 	   29.0000 	   21.2916
    0.2670 	   86.8650 	   23.0000 	   29.0000 	   21.8867
    0.5264 	   87.0105 	   23.0000 	   29.0000 	   22.4687
    0.2365 	   87.1593 	   23.0000 	   29.0000 	   23.0637
    0.0076 	   87.3078 	   23.0000 	   29.0000 	   23.6578
    0.3281 	   87.4545 	   23.0000 	   29.0000 	   24.2448
    0.1755 	   87.6000 	   23.0000 	   29.0000 	   24.8268
    0.2670 	   87.7538 	   23.0000 	   29.0000 	   25.4419
    0.0687 	   87.9040 	   23.0000 	   29.0000 	   26.0429
    0.0687 	   88.0508 	   23.0000 	   29.0000 	   26.6299
    0.0687 	   88.2033 	   23.0000 	   29.0000 	   27.2400
    0.0687 	   88.3523 	   23.0000 	   29.0000 	   27.8360
    0.2060 	   88.4990 	   23.0000 	   29.0000 	   28.4220
    0.1297 	   88.6530 	   23.0000 	   29.0000 	   29.0391