File: instron/long_3W15L_drag30_spd15.txt
Thayer School of Engineering        Instron 4442 Mechanical Testing System
6/28/2018 4:40:11 AM

  Force (N)	Extension (mm)	Not Used	Not Used	Not Used	     Hour	    Minute	    Second
    0.3128 	    0.2560 	    4.0000 	   40.0000 	   27.1022
    0.3128 	    0.3470 	    4.0000 	   40.0000 	   27.4663
    0.2823 	    0.4300 	    4.0000 	   40.0000 	   27.7983
    0.1297 	    0.5168 	    4.0000 	   40.0000 	   28.1453
    0.2060 	    0.6060 	    4.0000 	   40.0000 	   28.5023
    0.2670 	    0.6940 	    4.0000 	   40.0000 	   28.8543
    0.3738 	    0.7850 	    4.0000 	   40.0000 	   29.2184
    0.2213 	    0.8420 	    4.0000 	   40.0000 	   29.4464
    0.2060 	    0.9008 	    4.0000 	   40.0000 	   29.6814
    0.2213 	    0.9628 	    4.0000 	   40.0000 	   29.9294
    0.2213 	    1.0210 	    4.0000 	   40.0000 	   30.1624
    0.1755 	    1.0848 	    4.0000 	   40.0000 	   30.4174
    0.3433 	    1.1375 	    4.0000 	   40.0000 	   30.6284
   -0.0076 	    1.1938 	    4.0000 	   40.0000 	   30.8535
    0.1602 	    1.2500 	    4.0000 	   40.0000 	   31.0785
    0.2670 	    1.3065 	    4.0000 	   40.0000 	   31.3045
    0.2365 	    1.3545 	    4.0000 	   40.0000 	   31.4965
    0.2670 	    1.4023 	    4.0000 	   40.0000 	   31.6875
    0.2823 	    1.4518 	    4.0000 	   40.0000 	   31.8855
   -0.0229 	    1.5088 	    4.0000 	   40.0000 	   32.1135
   -0.0076 	    1.5630 	    4.0000 	   40.0000 	   32.3305
    0.2060 	    1.6108 	    4.0000 	   40.0000 	   32.5216
    0.2365 	    1.6600 	    4.0000 	   40.0000 	   32.7186
    0.3586 	    1.7080 	    4.0000 	   40.0000 	   32.9106
    0.4654 	    1.7565 	    4.0000 	   40.0000 	   33.1046
    0.3128 	    1.8050 	    4.0000 	   40.0000 	   33.2986
    0.4044 	    1.8535 	    4.0000 	   40.0000 	   33.4916
    0.2823 	    1.9095 	    4.0000 	   40.0000 	   33.7156
    0.2518 	    1.9658 	    4.0000 	   40.0000 	   33.9406
    0.3738 	    2.0203 	    4.0000 	   40.0000 	   34.1586
    0.4349 	    2.0720 	    4.0000 	   40.0000 	   34.3657
    0.2518 	    2.1190 	    4.0000 	   40.0000 	   34.5527
    0.3128 	    2.1748 	    4.0000 	   40.0000 	   34.7767
    0.2976 	    2.2315 	    4.0000 	   40.0000 	   35.0037
    0.2365 	    2.2875 	    4.0000 	   40.0000 	   35.2277
    0.2518 	    2.3385 	    4.0000 	   40.0000 	   35.4317
    0.1907 	    2.3865 	    4.0000 	   40.0000 	   35.6237
    0.1450 	    2.4415 	    4.0000 	   40.0000 	   35.8437
    0.4044 	    2.4968 	    4.0000 	   40.0000 	   36.0648
    0.2213 	    2.5533 	    4.0000 	   40.0000 	   36.2908
    0.0534 	    2.6043 	    4.0000 	   40.0000 	   36.4948
    0.1755 	    2.6588 	    4.0000 	   40.0000 	   36.7128
    0.3128 	    2.7165 	    4.0000 	   40.0000 	   36.9438
    0.2670 	    2.7725 	    4.0000 	   40.0000 	   37.1678
    0.3738 	    2.8278 	    4.0000 	   40.0000 	   37.3888
    0.2518 	    2.8790 	    4.0000 	   40.0000 	   37.5938
    0.1602 	    2.9358 	    4.0000 	   40.0000 	   37.8209
    0.2976 	    2.9940 	    4.0000 	   40.0000 	   38.0539
    0.1297 	    3.0510 	    4.0000 	   40.0000 	   38.2819
    0.3281 	    3.1033 	    4.0000 	   40.0000 	   38.4909
    0.4196 	    3.1585 	    4.0000 	   40.0000 	   38.7119
    0.2365 	    3.2183 	    4.0000 	   40.0000 	   38.9509
    0.3738 	    3.2755 	    4.0000 	   40.0000 	   39.1799
    0.3738 	    3.3295 	    4.0000 	   40.0000 	   39.3959
    0.4196 	    3.3783 	    4.0000 	   40.0000 	   39.5910
    0.2518 	    3.4343 	    4.0000 	   40.0000 	   39.8150
    0.3128 	    3.4853 	    4.0000 	   40.0000 	   40.0190
    0.3128 	    3.5433 	    4.0000 	   40.0000 	   40.2510
    0.4349 	    3.5955 	    4.0000 	   40.0000 	   40.4600
    0.3281 	    3.6445 	    4.0000 	   40.0000 	   40.6560
    0.2976 	    3.7028 	    4.0000 	   40.0000 	   40.8890
    0.2518 	    3.7600 	    4.0000 	   40.0000 	   41.1180
    0.3128 	    3.8120 	    4.0000 	   40.0000 	   41.3261
    0.2823 	    3.8628 	    4.0000 	   40.0000 	   41.5291
    0.3433 	    3.9123 	    4.0000 	   40.0000 	   41.7271
    0.2518 	    3.9693 	    4.0000 	   40.0000 	   41.9551
    0.3281 	    4.0285 	    4.0000 	   40.0000 	   42.1921
    0.3128 	    4.0840 	    4.0000 	   40.0000 	   42.4141
    0.2518 	    4.1363 	    4.0000 	   40.0000 	   42.6231
    0.3586 	    4.1950 	    4.0000 	   40.0000 	   42.8581
    0.2823 	    4.2548 	    4.0000 	   40.0000 	   43.0972
    0.2823 	    4.3123 	    4.0000 	   40.0000 	   43.3272
    0.4196 	    4.3648 	    4.0000 	   40.0000 	   43.5372
    0.2670 	    4.4283 	    4.0000 	   40.0000 	   43.7912
    0.4959 	    4.4855 	    4.0000 	   40.0000 	   44.0202
    0.2060 	    4.5435 	    4.0000 	   40.0000 	   44.2522
    0.3586 	    4.5970 	    4.0000 	   40.0000 	   44.4662
    0.3738 	    4.6500 	    4.0000 	   40.0000 	   44.6782
    0.3738 	    4.7045 	    4.0000 	   40.0000 	   44.8963
    0.3891 	    4.7598 	    4.0000 	   40.0000 	   45.1173
    0.3128 	    4.8170 	    4.0000 	   40.0000 	   45.3463
    0.2976 	    4.8700 	    4.0000 	   40.0000 	   45.5583
    0.4044 	    4.9295 	    4.0000 	   40.0000 	   45.7963
    0.3128 	    4.9880 	    4.0000 	   40.0000 	   46.0303
    0.4196 	    5.0480 	    4.0000 	   40.0000 	   46.2703
    0.3738 	    5.1010 	    4.0000 	   40.0000 	   46.4824
    0.1297 	    5.1528 	    4.0000 	   40.0000 	   46.6894
    0.2213 	    5.2088 	    4.0000 	   40.0000 	   46.9134
    0.2365 	    5.2695 	    4.0000 	   40.0000 	   47.1564
    0.5264 	    5.3250 	    4.0000 	   40.0000 	   47.3784
    0.4654 	    5.3768 	    4.0000 	   40.0000 	   47.5854
    0.3281 	    5.4290 	    4.0000 	   40.0000 	   47.7944
    0.3281 	    5.4830 	    4.0000 	   40.0000 	   48.0104
    0.4044 	    5.5438 	    4.0000 	   40.0000 	   48.2535
    0.2518 	    5.5980 	    4.0000 	   40.0000 	   48.4705
    0.3891 	    5.6535 	    4.0000 	   40.0000 	   48.6925
    0.3891 	    5.7143 	    4.0000 	   40.0000 	   48.9355
    0.2976 	    5.7728 	    4.0000 	   40.0000 	   49.1695
    0.3433 	    5.8315 	    4.0000 	   40.0000 	   49.4045
    0.2670 	    5.8840 	    4.0000 	   40.0000 	   49.6145
    0.3281 	    5.9415 	    4.0000 	   40.0000 	   49.8445
    0.3586 	    6.0020 	    4.0000 	   40.0000 	   50.0866
    0.3738 	    6.0635 	    4.0000 	   40.0000 	   50.3326
    0.3433 	    6.1193 	    4.0000 	   40.0000 	   50.5556
    0.3281 	    6.1725 	    4.0000 	   40.0000 	   50.7686
    0.1907 	    6.2273 	    4.0000 	   40.0000 	   50.9866
    0.3433 	    6.2873 	    4.0000 	   40.0000 	   51.2266
    0.4807 	    6.3465 	    4.0000 	   40.0000 	   51.4636
    0.4654 	    6.4030 	    4.0000 	   40.0000 	   51.6897
    0.2518 	    6.4638 	    4.0000 	   40.0000 	   51.9327
    0.2518 	    6.5225 	    4.0000 	   40.0000 	   52.1677
    0.3281 	    6.5825 	    4.0000 	   40.0000 	   52.4077
    0.1450 	    6.6385 	    4.0000 	   40.0000 	   52.6317
    0.3281 	    6.6998 	    4.0000 	   40.0000 	   52.8767
    0.3891 	    6.7605 	    4.0000 	   40.0000 	   53.1197
    0.2976 	    6.8240 	    4.0000 	   40.0000 	   53.3737
    0.4044 	    6.8788 	    4.0000 	   40.0000 	   53.5928
    0.4044 	    6.9398 	    4.0000 	   40.0000 	   53.8368
    0.4654 	    7.0018 	    4.0000 	   40.0000 	   54.0848
    0.5722 	    7.0580 	    4.0000 	   40.0000 	   54.3098
    0.3738 	    7.1180 	    4.0000 	   40.0000 	   54.5498
    0.4654 	    7.1783 	    4.0000 	   40.0000 	   54.7908
    0.4044 	    7.2400 	    4.0000 	   40.0000 	   55.0378
    0.3281 	    7.3035 	    4.0000 	   40.0000 	   55.2919
    0.0992 	    7.3618 	    4.0000 	   40.0000 	   55.5249
    0.3433 	    7.4170 	    4.0000 	   40.0000 	   55.7459
    0.4196 	    7.4723 	    4.0000 	   40.0000 	   55.9669
    0.2365 	    7.5313 	    4.0000 	   40.0000 	   56.2029
    0.4501 	    7.5938 	    4.0000 	   40.0000 	   56.4529
    0.3738 	    7.6520 	    4.0000 	   40.0000 	   56.6859
    0.4959 	    7.7103 	    4.0000 	   40.0000 	   56.9189
    0.4959 	    7.7690 	    4.0000 	   40.0000 	   57.1540
    0.4959 	    7.8305 	    4.0000 	   40.0000 	   57.4000
    0.5112 	    7.8870 	    4.0000 	   40.0000 	   57.6260
    0.3738 	    7.9485 	    4.0000 	   40.0000 	   57.8720
    0.5112 	    8.0125 	    4.0000 	   40.0000 	   58.1280
    0.2518 	    8.0718 	    4.0000 	   40.0000 	   58.3650
    0.4654 	    8.1285 	    4.0000 	   40.0000 	   58.5920
    0.5722 	    8.1900 	    4.0000 	   40.0000 	   58.8381
    0.3738 	    8.2552 	    4.0000 	   40.0000 	   59.0991
    0.3891 	    8.3195 	    4.0000 	   40.0000 	   59.3561
    0.3128 	    8.3790 	    4.0000 	   40.0000 	   59.5941
    0.4044 	    8.4440 	    4.0000 	   40.0000 	   59.8541
    0.3738 	    8.5055 	    4.0000 	   41.0000 	    0.1001
    0.3738 	    8.5698 	    4.0000 	   41.0000 	    0.3571
    0.4349 	    8.6300 	    4.0000 	   41.0000 	    0.5982
    0.4196 	    8.6938 	    4.0000 	   41.0000 	    0.8532
    0.4044 	    8.7583 	    4.0000 	   41.0000 	    1.1112
    0.3738 	    8.8250 	    4.0000 	   41.0000 	    1.3782
    0.3891 	    8.8835 	    4.0000 	   41.0000 	    1.6122
    0.3128 	    8.9488 	    4.0000 	   41.0000 	    1.8732
    0.2823 	    9.0155 	    4.0000 	   41.0000 	    2.1402
    0.5112 	    9.0808 	    4.0000 	   41.0000 	    2.4013
    0.4044 	    9.1403 	    4.0000 	   41.0000 	    2.6393
    0.3891 	    9.2060 	    4.0000 	   41.0000 	    2.9023
    0.4959 	    9.2725 	    4.0000 	   41.0000 	    3.1683
    0.4501 	    9.3375 	    4.0000 	   41.0000 	    3.4283
    0.3281 	    9.3963 	    4.0000 	   41.0000 	    3.6633
    0.4044 	    9.4553 	    4.0000 	   41.0000 	    3.8993
    0.4196 	    9.5158 	    4.0000 	   41.0000 	    4.1414
    0.4044 	    9.5740 	    4.0000 	   41.0000 	    4.3744
    0.3128 	    9.6348 	    4.0000 	   41.0000 	    4.6174
    0.4044 	    9.6993 	    4.0000 	   41.0000 	    4.8754
    0.4654 	    9.7635 	    4.0000 	   41.0000 	    5.1324
    0.3738 	    9.8253 	    4.0000 	   41.0000 	    5.3794
    0.1450 	    9.8843 	    4.0000 	   41.0000 	    5.6154
    0.4501 	    9.9420 	    4.0000 	   41.0000 	    5.8465
    0.6180 	   10.0028 	    4.0000 	   41.0000 	    6.0895
    0.5264 	   10.0635 	    4.0000 	   41.0000 	    6.3325
    0.4501 	   10.1243 	    4.0000 	   41.0000 	    6.5755
    0.5112 	   10.1870 	    4.0000 	   41.0000 	    6.8265
    0.5112 	   10.2483 	    4.0000 	   41.0000 	    7.0715
    0.3891 	   10.3123 	    4.0000 	   41.0000 	    7.3275
    0.4349 	   10.3748 	    4.0000 	   41.0000 	    7.5776
    0.4654 	   10.4388 	    4.0000 	   41.0000 	    7.8326
    0.5264 	   10.5048 	    4.0000 	   41.0000 	    8.0976
    0.3738 	   10.5660 	    4.0000 	   41.0000 	    8.3426
    0.4349 	   10.6290 	    4.0000 	   41.0000 	    8.5936
    0.3586 	   10.6918 	    4.0000 	   41.0000 	    8.8446
    0.3891 	   10.7530 	    4.0000 	   41.0000 	    9.0896
    0.4501 	   10.8183 	    4.0000 	   41.0000 	    9.3507
    0.4196 	   10.8820 	    4.0000 	   41.0000 	    9.6057
    0.6180 	   10.9430 	    4.0000 	   41.0000 	    9.8497
    0.3738 	   11.0033 	    4.0000 	   41.0000 	   10.0907
    0.3128 	   11.0715 	    4.0000 	   41.0000 	   10.3637
    0.4196 	   11.1350 	    4.0000 	   41.0000 	   10.6177
    0.3891 	   11.1950 	    4.0000 	   41.0000 	   10.8577
    0.4654 	   11.2563 	    4.0000 	   41.0000 	   11.1028
    0.4196 	   11.3178 	    4.0000 	   41.0000 	   11.3488
    0.4959 	   11.3803 	    4.0000 	   41.0000 	   11.5988
    0.5570 	   11.4443 	    4.0000 	   41.0000 	   11.8548
    0.4654 	   11.5100 	    4.0000 	   41.0000 	   12.1178
    0.4044 	   11.5785 	    4.0000 	   41.0000 	   12.3918
    0.4501 	   11.6438 	    4.0000 	   41.0000 	   12.6528
    0.5417 	   11.7053 	    4.0000 	   41.0000 	   12.8989
    0.4044 	   11.7748 	    4.0000 	   41.0000 	   13.1769
    0.3433 	   11.8450 	    4.0000 	   41.0000 	   13.4579
    0.4196 	   11.9098 	    4.0000 	   41.0000 	   13.7169
    0.5112 	   11.9813 	    4.0000 	   41.0000 	   14.0029
    0.4959 	   12.0543 	    4.0000 	   41.0000 	   14.2949
    0.3738 	   12.1243 	    4.0000 	   41.0000 	   14.5750
    0.4501 	   12.1873 	    4.0000 	   41.0000 	   14.8270
    0.5570 	   12.2568 	    4.0000 	   41.0000 	   15.1050
    0.4959 	   12.3293 	    4.0000 	   41.0000 	   15.3950
    0.4349 	   12.3955 	    4.0000 	   41.0000 	   15.6600
    0.5112 	   12.4618 	    4.0000 	   41.0000 	   15.9250
    0.4959 	   12.5325 	    4.0000 	   41.0000 	   16.2081
    0.4044 	   12.5988 	    4.0000 	   41.0000 	   16.4731
    0.4807 	   12.6645 	    4.0000 	   41.0000 	   16.7361
    0.4807 	   12.7280 	    4.0000 	   41.0000 	   16.9901
    0.6485 	   12.7925 	    4.0000 	   41.0000 	   17.2481
    0.5264 	   12.8578 	    4.0000 	   41.0000 	   17.5091
    0.3128 	   12.9195 	    4.0000 	   41.0000 	   17.7561
    0.5112 	   12.9873 	    4.0000 	   41.0000 	   18.0272
    0.4196 	   13.0583 	    4.0000 	   41.0000 	   18.3112
    0.2976 	   13.1260 	    4.0000 	   41.0000 	   18.5822
    0.5875 	   13.1898 	    4.0000 	   41.0000 	   18.8372
    0.6180 	   13.2575 	    4.0000 	   41.0000 	   19.1082
    0.4501 	   13.3228 	    4.0000 	   41.0000 	   19.3692
    0.4654 	   13.3873 	    4.0000 	   41.0000 	   19.6272
    0.4044 	   13.4528 	    4.0000 	   41.0000 	   19.8893
    0.3586 	   13.5173 	    4.0000 	   41.0000 	   20.1473
    0.5112 	   13.5845 	    4.0000 	   41.0000 	   20.4163
    0.4654 	   13.6533 	    4.0000 	   41.0000 	   20.6913
    0.4807 	   13.7248 	    4.0000 	   41.0000 	   20.9773
    0.4501 	   13.7930 	    4.0000 	   41.0000 	   21.2503
    0.4044 	   13.8593 	    4.0000 	   41.0000 	   21.5144
    0.3281 	   13.9275 	    4.0000 	   41.0000 	   21.7884
    0.4044 	   13.9990 	    4.0000 	   41.0000 	   22.0744
    0.6332 	   14.0655 	    4.0000 	   41.0000 	   22.3404
    0.4501 	   14.1338 	    4.0000 	   41.0000 	   22.6134
    0.4349 	   14.2018 	    4.0000 	   41.0000 	   22.8854
    0.4501 	   14.2715 	    4.0000 	   41.0000 	   23.1645
    0.5722 	   14.3413 	    4.0000 	   41.0000 	   23.4435
    0.5112 	   14.4165 	    4.0000 	   41.0000 	   23.7445
    0.6485 	   14.4883 	    4.0000 	   41.0000 	   24.0315
    0.5722 	   14.5538 	    4.0000 	   41.0000 	   24.2935
    0.4959 	   14.6213 	    4.0000 	   41.0000 	   24.5635
    0.5875 	   14.6908 	    4.0000 	   41.0000 	   24.8415
    0.5417 	   14.7583 	    4.0000 	   41.0000 	   25.1116
    0.4959 	   14.8245 	    4.0000 	   41.0000 	   25.3766
    0.7248 	   14.8930 	    4.0000 	   41.0000 	   25.6506
    0.6180 	   14.9603 	    4.0000 	   41.0000 	   25.9186
    0.5722 	   15.0293 	    4.0000 	   41.0000 	   26.1936
    0.4959 	   15.0983 	    4.0000 	   41.0000 	   26.4706
    0.6332 	   15.1688 	    4.0000 	   41.0000 	   26.7527
    0.2365 	   15.2363 	    4.0000 	   41.0000 	   27.0227
    0.4196 	   15.3060 	    4.0000 	   41.0000 	   27.3017
    0.6180 	   15.3753 	    4.0000 	   41.0000 	   27.5787
    0.6027 	   15.4443 	    4.0000 	   41.0000 	   27.8547
    0.4654 	   15.5125 	    4.0000 	   41.0000 	   28.1277
    0.5417 	   15.5803 	    4.0000 	   41.0000 	   28.3988
    0.3433 	   15.6523 	    4.0000 	   41.0000 	   28.6868
    0.4654 	   15.7190 	    4.0000 	   41.0000 	   28.9538
    0.6332 	   15.7893 	    4.0000 	   41.0000 	   29.2348
    0.6027 	   15.8570 	    4.0000 	   41.0000 	   29.5058
    0.4654 	   15.9283 	    4.0000 	   41.0000 	   29.7908
    0.4959 	   15.9988 	    4.0000 	   41.0000 	   30.0728
    0.0992 	   16.0700 	    4.0000 	   41.0000 	   30.3579
    0.4044 	   16.1523 	    4.0000 	   41.0000 	   30.6869
    0.5722 	   16.2230 	    4.0000 	   41.0000 	   30.9699
    0.4807 	   16.2952 	    4.0000 	   41.0000 	   31.2589
    0.4959 	   16.3680 	    4.0000 	   41.0000 	   31.5499
    0.5875 	   16.4368 	    4.0000 	   41.0000 	   31.8249
    0.5264 	   16.5083 	    4.0000 	   41.0000 	   32.1110
    0.4044 	   16.5815 	    4.0000 	   41.0000 	   32.4040
    0.6027 	   16.6560 	    4.0000 	   41.0000 	   32.7020
    0.5112 	   16.7265 	    4.0000 	   41.0000 	   32.9840
    0.4349 	   16.8003 	    4.0000 	   41.0000 	   33.2790
    0.5417 	   16.8723 	    4.0000 	   41.0000 	   33.5670
    0.4349 	   16.9440 	    4.0000 	   41.0000 	   33.8541
    0.6485 	   17.0150 	    4.0000 	   41.0000 	   34.1381
    0.4349 	   17.0905 	    4.0000 	   41.0000 	   34.4401
    0.4501 	   17.1618 	    4.0000 	   41.0000 	   34.7251
    0.6638 	   17.2335 	    4.0000 	   41.0000 	   35.0121
    0.5875 	   17.3043 	    4.0000 	   41.0000 	   35.2951
    0.4959 	   17.3790 	    4.0000 	   41.0000 	   35.5942
    0.4196 	   17.4478 	    4.0000 	   41.0000 	   35.8692
    0.6332 	   17.5165 	    4.0000 	   41.0000 	   36.1442
    0.6332 	   17.5873 	    4.0000 	   41.0000 	   36.4272
    0.4501 	   17.6585 	    4.0000 	   41.0000 	   36.7122
    0.6332 	   17.7320 	    4.0000 	   41.0000 	   37.0062
    0.6332 	   17.8020 	    4.0000 	   41.0000 	   37.2863
    0.5264 	   17.8713 	    4.0000 	   41.0000 	   37.5633
    0.6485 	   17.9410 	    4.0000 	   41.0000 	   37.8423
    0.4807 	   18.0105 	    4.0000 	   41.0000 	   38.1203
    0.7095 	   18.0833 	    4.0000 	   41.0000 	   38.4113
    0.5570 	   18.1575 	    4.0000 	   41.0000 	   38.7083
    0.4044 	   18.2273 	    4.0000 	   41.0000 	   38.9874
    0.6638 	   18.3008 	    4.0000 	   41.0000 	   39.2814
    0.5264 	   18.3743 	    4.0000 	   41.0000 	   39.5754
    0.6485 	   18.4428 	    4.0000 	   41.0000 	   39.8494
    0.6180 	   18.5158 	    4.0000 	   41.0000 	   40.1414
    0.6485 	   18.5895 	    4.0000 	   41.0000 	   40.4364
    0.5417 	   18.6583 	    4.0000 	   41.0000 	   40.7115
    0.5570 	   18.7288 	    4.0000 	   41.0000 	   40.9935
    0.5417 	   18.8050 	    4.0000 	   41.0000 	   41.2985
    0.5722 	   18.8820 	    4.0000 	   41.0000 	   41.6065
    0.6027 	   18.9510 	    4.0000 	   41.0000 	   41.8825
    0.7706 	   19.0233 	    4.0000 	   41.0000 	   42.1715
    0.6943 	   19.0978 	    4.0000 	   41.0000 	   42.4696
    0.5722 	   19.1708 	    4.0000 	   41.0000 	   42.7616
    0.5722 	   19.2450 	    4.0000 	   41.0000 	   43.0586
    0.5570 	   19.3213 	    4.0000 	   41.0000 	   43.3626
    0.5875 	   19.3948 	    4.0000 	   41.0000 	   43.6566
    0.5417 	   19.4635 	    4.0000 	   41.0000 	   43.9316
    0.5875 	   19.5385 	    4.0000 	   41.0000 	   44.2317
    0.3128 	   19.6130 	    4.0000 	   41.0000 	   44.5297
    0.6027 	   19.6833 	    4.0000 	   41.0000 	   44.8107
    0.5722 	   19.7568 	    4.0000 	   41.0000 	   45.1047
    0.6943 	   19.8308 	    4.0000 	   41.0000 	   45.4007
    0.4501 	   19.9038 	    4.0000 	   41.0000 	   45.6927
    0.7095 	   19.9745 	    4.0000 	   41.0000 	   45.9758
    0.4959 	   20.0450 	    4.0000 	   41.0000 	   46.2578
    0.6332 	   20.1160 	    4.0000 	   41.0000 	   46.5418
    0.6485 	   20.1873 	    4.0000 	   41.0000 	   46.8268
    0.4807 	   20.2605 	    4.0000 	   41.0000 	   47.1198
    0.6485 	   20.3335 	    4.0000 	   41.0000 	   47.4118
    0.3433 	   20.4063 	    4.0000 	   41.0000 	   47.7029
    0.6180 	   20.4770 	    4.0000 	   41.0000 	   47.9859
    0.4196 	   20.5498 	    4.0000 	   41.0000 	   48.2769
    0.6027 	   20.6253 	    4.0000 	   41.0000 	   48.5789
    0.5875 	   20.7003 	    4.0000 	   41.0000 	   48.8789
    0.7401 	   20.7785 	    4.0000 	   41.0000 	   49.1919
    0.6790 	   20.8548 	    4.0000 	   41.0000 	   49.4970
    0.4501 	   20.9268 	    4.0000 	   41.0000 	   49.7850
    0.6180 	   21.0000 	    4.0000 	   41.0000 	   50.0780
    0.6180 	   21.0765 	    4.0000 	   41.0000 	   50.3840
    0.7401 	   21.1495 	    4.0000 	   41.0000 	   50.6760
    0.5875 	   21.2215 	    4.0000 	   41.0000 	   50.9640
    0.4959 	   21.2988 	    4.0000 	   41.0000 	   51.2731
    0.7401 	   21.3758 	    4.0000 	   41.0000 	   51.5811
    0.5264 	   21.4478 	    4.0000 	   41.0000 	   51.8691
    0.6332 	   21.5223 	    4.0000 	   41.0000 	   52.1671
    0.7401 	   21.5953 	    4.0000 	   41.0000 	   52.4591
    0.6180 	   21.6693 	    4.0000 	   41.0000 	   52.7551
    0.4654 	   21.7438 	    4.0000 	   41.0000 	   53.0532
    0.6943 	   21.8188 	    4.0000 	   41.0000 	   53.3532
    0.6485 	   21.8920 	    4.0000 	   41.0000 	   53.6462
    0.6943 	   21.9635 	    4.0000 	   41.0000 	   53.9322
    0.6027 	   22.0365 	    4.0000 	   41.0000 	   54.2242
    0.6638 	   22.1090 	    4.0000 	   41.0000 	   54.5142
    0.5570 	   22.1840 	    4.0000 	   41.0000 	   54.8143
    0.6638 	   22.2583 	    4.0000 	   41.0000 	   55.1113
    0.5875 	   22.3325 	    4.0000 	   41.0000 	   55.4083
    0.6332 	   22.4070 	    4.0000 	   41.0000 	   55.7063
    0.5875 	   22.4825 	    4.0000 	   41.0000 	   56.0083
    0.5264 	   22.5623 	    4.0000 	   41.0000 	   56.3273
    0.6332 	   22.6373 	    4.0000 	   41.0000 	   56.6274
    0.6790 	   22.7130 	    4.0000 	   41.0000 	   56.9304
    0.6943 	   22.7858 	    4.0000 	   41.0000 	   57.2214
    0.9079 	   22.8575 	    4.0000 	   41.0000 	   57.5084
    0.6180 	   22.9335 	    4.0000 	   41.0000 	   57.8124
    0.8164 	   23.0095 	    4.0000 	   41.0000 	   58.1165
    0.7858 	   23.0888 	    4.0000 	   41.0000 	   58.4335
    0.6332 	   23.1618 	    4.0000 	   41.0000 	   58.7255
    0.7095 	   23.2348 	    4.0000 	   41.0000 	   59.0175
    0.6943 	   23.3128 	    4.0000 	   41.0000 	   59.3295
    0.5875 	   23.3863 	    4.0000 	   41.0000 	   59.6235
    0.6790 	   23.4620 	    4.0000 	   41.0000 	   59.9266
    0.6638 	   23.5403 	    4.0000 	   42.0000 	    0.2396
    0.8011 	   23.6173 	    4.0000 	   42.0000 	    0.5476
    0.7401 	   23.6933 	    4.0000 	   42.0000 	    0.8506
    0.5112 	   23.7705 	    4.0000 	   42.0000 	    1.1596
    0.8469 	   23.8440 	    4.0000 	   42.0000 	    1.4536
    0.7706 	   23.9175 	    4.0000 	   42.0000 	    1.7477
    0.8316 	   23.9905 	    4.0000 	   42.0000 	    2.0397
    0.6638 	   24.0663 	    4.0000 	   42.0000 	    2.3427
    0.6943 	   24.1418 	    4.0000 	   42.0000 	    2.6447
    0.8011 	   24.2143 	    4.0000 	   42.0000 	    2.9347
    0.7248 	   24.2880 	    4.0000 	   42.0000 	    3.2297
    0.8927 	   24.3660 	    4.0000 	   42.0000 	    3.5418
    0.6332 	   24.4425 	    4.0000 	   42.0000 	    3.8478
    0.7095 	   24.5150 	    4.0000 	   42.0000 	    4.1378
    0.6485 	   24.5900 	    4.0000 	   42.0000 	    4.4378
    0.5570 	   24.6683 	    4.0000 	   42.0000 	    4.7508
    0.6790 	   24.7420 	    4.0000 	   42.0000 	    5.0458
    0.6638 	   24.8148 	    4.0000 	   42.0000 	    5.3369
    0.6790 	   24.8923 	    4.0000 	   42.0000 	    5.6469
    0.8927 	   24.9680 	    4.0000 	   42.0000 	    5.9499
    0.5875 	   25.0508 	    4.0000 	   42.0000 	    6.2809
    0.7858 	   25.1295 	    4.0000 	   42.0000 	    6.5959
    0.7553 	   25.2075 	    4.0000 	   42.0000 	    6.9080
    0.7553 	   25.2808 	    4.0000 	   42.0000 	    7.2010
    0.6790 	   25.3580 	    4.0000 	   42.0000 	    7.5100
    0.8011 	   25.4373 	    4.0000 	   42.0000 	    7.8270
    0.6638 	   25.5160 	    4.0000 	   42.0000 	    8.1420
    0.7095 	   25.5920 	    4.0000 	   42.0000 	    8.4460
    0.7248 	   25.6683 	    4.0000 	   42.0000 	    8.7501
    0.6943 	   25.7453 	    4.0000 	   42.0000 	    9.0591
    0.7095 	   25.8210 	    4.0000 	   42.0000 	    9.3621
    0.7095 	   25.8978 	    4.0000 	   42.0000 	    9.6691
    0.8469 	   25.9728 	    4.0000 	   42.0000 	    9.9691
    0.8621 	   26.0505 	    4.0000 	   42.0000 	   10.2801
    0.8164 	   26.1275 	    4.0000 	   42.0000 	   10.5882
    0.5875 	   26.2060 	    4.0000 	   42.0000 	   10.9022
    0.8621 	   26.2793 	    4.0000 	   42.0000 	   11.1952
    0.6790 	   26.3570 	    4.0000 	   42.0000 	   11.5062
    0.6790 	   26.4330 	    4.0000 	   42.0000 	   11.8102
    0.6638 	   26.5080 	    4.0000 	   42.0000 	   12.1103
    0.6332 	   26.5903 	    4.0000 	   42.0000 	   12.4393
    0.6943 	   26.6673 	    4.0000 	   42.0000 	   12.7473
    0.5570 	   26.7455 	    4.0000 	   42.0000 	   13.0603
    0.8774 	   26.8288 	    4.0000 	   42.0000 	   13.3933
    0.8469 	   26.9100 	    4.0000 	   42.0000 	   13.7183
    0.6485 	   26.9890 	    4.0000 	   42.0000 	   14.0344
    0.8927 	   27.0720 	    4.0000 	   42.0000 	   14.3664
    0.8011 	   27.1495 	    4.0000 	   42.0000 	   14.6764
    0.8011 	   27.2278 	    4.0000 	   42.0000 	   14.9894
    0.7401 	   27.3045 	    4.0000 	   42.0000 	   15.2964
    0.6027 	   27.3860 	    4.0000 	   42.0000 	   15.6225
    0.7706 	   27.4645 	    4.0000 	   42.0000 	   15.9365
    0.6790 	   27.5395 	    4.0000 	   42.0000 	   16.2365
    0.8774 	   27.6220 	    4.0000 	   42.0000 	   16.5665
    0.7248 	   27.7008 	    4.0000 	   42.0000 	   16.8815
    0.8011 	   27.7753 	    4.0000 	   42.0000 	   17.1795
    0.8469 	   27.8558 	    4.0000 	   42.0000 	   17.5016
    0.7858 	   27.9330 	    4.0000 	   42.0000 	   17.8106
    0.7401 	   28.0098 	    4.0000 	   42.0000 	   18.1176
    0.9689 	   28.0883 	    4.0000 	   42.0000 	   18.4306
    0.6943 	   28.1670 	    4.0000 	   42.0000 	   18.7456
    0.8011 	   28.2438 	    4.0000 	   42.0000 	   19.0526
    0.8469 	   28.3215 	    4.0000 	   42.0000 	   19.3637
    0.8621 	   28.3980 	    4.0000 	   42.0000 	   19.6697
    0.8011 	   28.4758 	    4.0000 	   42.0000 	   19.9807
    0.8164 	   28.5515 	    4.0000 	   42.0000 	   20.2837
    0.8316 	   28.6295 	    4.0000 	   42.0000 	   20.5957
    0.7095 	   28.7060 	    4.0000 	   42.0000 	   20.9018
    0.9842 	   28.7870 	    4.0000 	   42.0000 	   21.2258
    0.8621 	   28.8655 	    4.0000 	   42.0000 	   21.5398
    0.7401 	   28.9415 	    4.0000 	   42.0000 	   21.8438
    0.7706 	   29.0198 	    4.0000 	   42.0000 	   22.1568
    0.9232 	   29.1023 	    4.0000 	   42.0000 	   22.4868
    0.9079 	   29.1818 	    4.0000 	   42.0000 	   22.8049
    0.8011 	   29.2590 	    4.0000 	   42.0000 	   23.1139
    0.7248 	   29.3355 	    4.0000 	   42.0000 	   23.4199
    0.8469 	   29.4175 	    4.0000 	   42.0000 	   23.7479
    0.7553 	   29.4965 	    4.0000 	   42.0000 	   24.0639
    0.7553 	   29.5730 	    4.0000 	   42.0000 	   24.3700
    0.8164 	   29.6510 	    4.0000 	   42.0000 	   24.6820
    0.6638 	   29.7280 	    4.0000 	   42.0000 	   24.9900
    0.9384 	   29.8053 	    4.0000 	   42.0000 	   25.2990
    0.7095 	   29.8823 	    4.0000 	   42.0000 	   25.6070
    0.8927 	   29.9605 	    4.0000 	   42.0000 	   25.9200
    0.7401 	   30.0388 	    4.0000 	   42.0000 	   26.2331
    0.8164 	   30.1193 	    4.0000 	   42.0000 	   26.5551
    0.7401 	   30.2008 	    4.0000 	   42.0000 	   26.8811
    0.8316 	   30.2795 	    4.0000 	   42.0000 	   27.1961
    0.8774 	   30.3638 	    4.0000 	   42.0000 	   27.5331
    0.6943 	   30.4455 	    4.0000 	   42.0000 	   27.8602
    0.7553 	   30.5210 	    4.0000 	   42.0000 	   28.1622
    0.8469 	   30.5993 	    4.0000 	   42.0000 	   28.4752
    0.8469 	   30.6793 	    4.0000 	   42.0000 	   28.7952
    0.8164 	   30.7575 	    4.0000 	   42.0000 	   29.1082
    0.7706 	   30.8358 	    4.0000 	   42.0000 	   29.4212
    0.7401 	   30.9145 	    4.0000 	   42.0000 	   29.7363
    0.6638 	   30.9925 	    4.0000 	   42.0000 	   30.0483
    0.8011 	   31.0695 	    4.0000 	   42.0000 	   30.3563
    0.7706 	   31.1470 	    4.0000 	   42.0000 	   30.6663
    0.8011 	   31.2265 	    4.0000 	   42.0000 	   30.9843
    0.7401 	   31.3063 	    4.0000 	   42.0000 	   31.3033
    0.7706 	   31.3910 	    4.0000 	   42.0000 	   31.6424
    0.5722 	   31.4700 	    4.0000 	   42.0000 	   31.9584
    0.6027 	   31.5470 	    4.0000 	   42.0000 	   32.2664
    0.8011 	   31.6243 	    4.0000 	   42.0000 	   32.5754
    0.7401 	   31.7053 	    4.0000 	   42.0000 	   32.8994
    0.6943 	   31.7840 	    4.0000 	   42.0000 	   33.2145
    0.7401 	   31.8695 	    4.0000 	   42.0000 	   33.5565
    0.7401 	   31.9533 	    4.0000 	   42.0000 	   33.8915
    0.8164 	   32.0317 	    4.0000 	   42.0000 	   34.2055
    0.5570 	   32.1145 	    4.0000 	   42.0000 	   34.5365
    0.7553 	   32.1938 	    4.0000 	   42.0000 	   34.8535
    0.7401 	   32.2720 	    4.0000 	   42.0000 	   35.1666
    0.9842 	   32.3530 	    4.0000 	   42.0000 	   35.4906
    0.7553 	   32.4345 	    4.0000 	   42.0000 	   35.8156
    0.6180 	   32.5130 	    4.0000 	   42.0000 	   36.1296
    0.8316 	   32.5928 	    4.0000 	   42.0000 	   36.4486
    0.7248 	   32.6750 	    4.0000 	   42.0000 	   36.7777
    0.8927 	   32.7568 	    4.0000 	   42.0000 	   37.1047
    0.6485 	   32.8390 	    4.0000 	   42.0000 	   37.4337
    0.7095 	   32.9235 	    4.0000 	   42.0000 	   37.7717
    0.6180 	   33.0035 	    4.0000 	   42.0000 	   38.0917
    0.8316 	   33.0903 	    4.0000 	   42.0000 	   38.4388
    0.6943 	   33.1725 	    4.0000 	   42.0000 	   38.7678
    0.7248 	   33.2537 	    4.0000 	   42.0000 	   39.0928
    0.7553 	   33.3400 	    4.0000 	   42.0000 	   39.4378
    0.5875 	   33.4215 	    4.0000 	   42.0000 	   39.7638
    0.6485 	   33.5030 	    4.0000 	   42.0000 	   40.0899
    0.6180 	   33.5838 	    4.0000 	   42.0000 	   40.4129
    0.8316 	   33.6695 	    4.0000 	   42.0000 	   40.7559
    0.6638 	   33.7500 	    4.0000 	   42.0000 	   41.0779
    0.6485 	   33.8308 	    4.0000 	   42.0000 	   41.4009
    0.7401 	   33.9180 	    4.0000 	   42.0000 	   41.7499
    0.6790 	   34.0003 	    4.0000 	   42.0000 	   42.0790
    0.6638 	   34.0800 	    4.0000 	   42.0000 	   42.3980
    0.7553 	   34.1600 	    4.0000 	   42.0000 	   42.7180
    0.6943 	   34.2423 	    4.0000 	   42.0000 	   43.0470
    0.6790 	   34.3250 	    4.0000 	   42.0000 	   43.3780
    0.6638 	   34.4070 	    4.0000 	   42.0000 	   43.7061
    0.6180 	   34.4915 	    4.0000 	   42.0000 	   44.0441
    0.6790 	   34.5725 	    4.0000 	   42.0000 	   44.3681
    0.6943 	   34.6543 	    4.0000 	   42.0000 	   44.6951
    0.5722 	   34.7358 	    4.0000 	   42.0000 	   45.0211
    0.6180 	   34.8170 	    4.0000 	   42.0000 	   45.3462
    0.7095 	   34.9033 	    4.0000 	   42.0000 	   45.6912
    0.6027 	   34.9888 	    4.0000 	   42.0000 	   46.0332
    0.6943 	   35.0703 	    4.0000 	   42.0000 	   46.3592
    0.6790 	   35.1565 	    4.0000 	   42.0000 	   46.7042
    0.3586 	   35.2390 	    4.0000 	   42.0000 	   47.0342
    0.5417 	   35.3198 	    4.0000 	   42.0000 	   47.3573
    0.6790 	   35.4028 	    4.0000 	   42.0000 	   47.6893
    0.6332 	   35.4855 	    4.0000 	   42.0000 	   48.0203
    0.7095 	   35.5700 	    4.0000 	   42.0000 	   48.3583
    0.8621 	   35.6548 	    4.0000 	   42.0000 	   48.6973
    0.6790 	   35.7375 	    4.0000 	   42.0000 	   49.0284
    0.7401 	   35.8183 	    4.0000 	   42.0000 	   49.3514
    0.6332 	   35.9048 	    4.0000 	   42.0000 	   49.6974
    0.6180 	   35.9905 	    4.0000 	   42.0000 	   50.0404
    0.6485 	   36.0778 	    4.0000 	   42.0000 	   50.3894
    0.8621 	   36.1653 	    4.0000 	   42.0000 	   50.7395
    0.6027 	   36.2508 	    4.0000 	   42.0000 	   51.0815
    0.6790 	   36.3308 	    4.0000 	   42.0000 	   51.4015
    0.7401 	   36.4138 	    4.0000 	   42.0000 	   51.7335
    0.6027 	   36.5013 	    4.0000 	   42.0000 	   52.0835
    0.5570 	   36.5828 	    4.0000 	   42.0000 	   52.4096
    0.5570 	   36.6698 	    4.0000 	   42.0000 	   52.7576
    0.5417 	   36.7573 	    4.0000 	   42.0000 	   53.1076
    0.5570 	   36.8437 	    4.0000 	   42.0000 	   53.4526
    0.6485 	   36.9318 	    4.0000 	   42.0000 	   53.8046
    0.6180 	   37.0168 	    4.0000 	   42.0000 	   54.1447
    0.5264 	   37.1023 	    4.0000 	   42.0000 	   54.4867
    0.7248 	   37.1920 	    4.0000 	   42.0000 	   54.8457
    0.5875 	   37.2773 	    4.0000 	   42.0000 	   55.1867
    0.6943 	   37.3645 	    4.0000 	   42.0000 	   55.5357
    0.6180 	   37.4515 	    4.0000 	   42.0000 	   55.8838
    0.5417 	   37.5370 	    4.0000 	   42.0000 	   56.2258
    0.4959 	   37.6263 	    4.0000 	   42.0000 	   56.5828
    0.5264 	   37.7100 	    4.0000 	   42.0000 	   56.9178
    0.7095 	   37.7933 	    4.0000 	   42.0000 	   57.2508
    0.6638 	   37.8760 	    4.0000 	   42.0000 	   57.5819
    0.5875 	   37.9598 	    4.0000 	   42.0000 	   57.9169
    0.4654 	   38.0443 	    4.0000 	   42.0000 	   58.2549
    0.6485 	   38.1285 	    4.0000 	   42.0000 	   58.5919
    0.5722 	   38.2130 	    4.0000 	   42.0000 	   58.9299
    0.4501 	   38.2980 	    4.0000 	   42.0000 	   59.2699
    0.1755 	   38.3835 	    4.0000 	   42.0000 	   59.6120
    0.3891 	   38.4718 	    4.0000 	   42.0000 	   59.9650
    0.6332 	   38.5580 	    4.0000 	   43.0000 	    0.3100
    0.4196 	   38.6460 	    4.0000 	   43.0000 	    0.6620
    0.5417 	   38.7333 	    4.0000 	   43.0000 	    1.0110
    0.5875 	   38.8205 	    4.0000 	   43.0000 	    1.3601
    0.5417 	   38.9113 	    4.0000 	   43.0000 	    1.7231
    0.2213 	   38.9978 	    4.0000 	   43.0000 	    2.0691
    0.4654 	   39.0823 	    4.0000 	   43.0000 	    2.4071
    0.5570 	   39.1695 	    4.0000 	   43.0000 	    2.7561
    0.5570 	   39.2593 	    4.0000 	   43.0000 	    3.1152
    0.6180 	   39.3463 	    4.0000 	   43.0000 	    3.4632
    0.5722 	   39.4315 	    4.0000 	   43.0000 	    3.8042
    0.5112 	   39.5185 	    4.0000 	   43.0000 	    4.1522
    0.4349 	   39.6060 	    4.0000 	   43.0000 	    4.5022
    0.5417 	   39.6938 	    4.0000 	   43.0000 	    4.8533
    0.4349 	   39.7803 	    4.0000 	   43.0000 	    5.1993
    0.4959 	   39.8688 	    4.0000 	   43.0000 	    5.5533
    0.5875 	   39.9530 	    4.0000 	   43.0000 	    5.8903
    0.4959 	   40.0385 	    4.0000 	   43.0000 	    6.2323
    0.4044 	   40.1250 	    4.0000 	   43.0000 	    6.5784
    0.5264 	   40.2120 	    4.0000 	   43.0000 	    6.9264
    0.6180 	   40.2993 	    4.0000 	   43.0000 	    7.2754
    0.5417 	   40.3875 	    4.0000 	   43.0000 	    7.6284
    0.5112 	   40.4790 	    4.0000 	   43.0000 	    7.9944
    0.4654 	   40.5658 	    4.0000 	   43.0000 	    8.3415
    0.4807 	   40.6543 	    4.0000 	   43.0000 	    8.6955
    0.4196 	   40.7430 	    4.0000 	   43.0000 	    9.0505
    0.5722 	   40.8285 	    4.0000 	   43.0000 	    9.3925
    0.4349 	   40.9150 	    4.0000 	   43.0000 	    9.7385
    0.4959 	   41.0020 	    4.0000 	   43.0000 	   10.0866
    0.4501 	   41.0908 	    4.0000 	   43.0000 	   10.4416
    0.1907 	   41.1785 	    4.0000 	   43.0000 	   10.7916
    0.6332 	   41.2675 	    4.0000 	   43.0000 	   11.1476
    0.4044 	   41.3573 	    4.0000 	   43.0000 	   11.5066
    0.5264 	   41.4498 	    4.0000 	   43.0000 	   11.8767
    0.6638 	   41.5375 	    4.0000 	   43.0000 	   12.2277
    0.5570 	   41.6290 	    4.0000 	   43.0000 	   12.5937
    0.4349 	   41.7210 	    4.0000 	   43.0000 	   12.9617
    0.4349 	   41.8085 	    4.0000 	   43.0000 	   13.3118
    0.4807 	   41.8985 	    4.0000 	   43.0000 	   13.6718
    0.5417 	   41.9868 	    4.0000 	   43.0000 	   14.0248
    0.7401 	   42.0763 	    4.0000 	   43.0000 	   14.3828
    0.4501 	   42.1640 	    4.0000 	   43.0000 	   14.7338
    0.4501 	   42.2533 	    4.0000 	   43.0000 	   15.0909
    0.3738 	   42.3438 	    4.0000 	   43.0000 	   15.4529
    0.3281 	   42.4343 	    4.0000 	   43.0000 	   15.8149
    0.4196 	   42.5220 	    4.0000 	   43.0000 	   16.1659
    0.4044 	   42.6088 	    4.0000 	   43.0000 	   16.5129
    0.4196 	   42.6998 	    4.0000 	   43.0000 	   16.8770
    0.4501 	   42.7910 	    4.0000 	   43.0000 	   17.2420
    0.4959 	   42.8795 	    4.0000 	   43.0000 	   17.5960
    0.4959 	   42.9685 	    4.0000 	   43.0000 	   17.9520
    0.6485 	   43.0580 	    4.0000 	   43.0000 	   18.3100
    0.4501 	   43.1460 	    4.0000 	   43.0000 	   18.6621
    0.2213 	   43.2350 	    4.0000 	   43.0000 	   19.0181
    0.3738 	   43.3255 	    4.0000 	   43.0000 	   19.3801
    0.4044 	   43.4173 	    4.0000 	   43.0000 	   19.7471
    0.5264 	   43.5068 	    4.0000 	   43.0000 	   20.1051
    0.4349 	   43.5958 	    4.0000 	   43.0000 	   20.4612
    0.5875 	   43.6843 	    4.0000 	   43.0000 	   20.8152
    0.5112 	   43.7740 	    4.0000 	   43.0000 	   21.1742
    0.3891 	   43.8625 	    4.0000 	   43.0000 	   21.5282
    0.5112 	   43.9555 	    4.0000 	   43.0000 	   21.9002
    0.5570 	   44.0470 	    4.0000 	   43.0000 	   22.2663
    0.4196 	   44.1343 	    4.0000 	   43.0000 	   22.6153
    0.4349 	   44.2228 	    4.0000 	   43.0000 	   22.9693
    0.4044 	   44.3093 	    4.0000 	   43.0000 	   23.3153
    0.3891 	   44.3983 	    4.0000 	   43.0000 	   23.6713
    0.5417 	   44.4868 	    4.0000 	   43.0000 	   24.0254
    0.4654 	   44.5758 	    4.0000 	   43.0000 	   24.3814
    0.4654 	   44.6638 	    4.0000 	   43.0000 	   24.7334
    0.2213 	   44.7520 	    4.0000 	   43.0000 	   25.0864
    0.3891 	   44.8448 	    4.0000 	   43.0000 	   25.4574
    0.4654 	   44.9393 	    4.0000 	   43.0000 	   25.8355
    0.4654 	   45.0308 	    4.0000 	   43.0000 	   26.2015
    0.4959 	   45.1215 	    4.0000 	   43.0000 	   26.5645
    0.3586 	   45.2090 	    4.0000 	   43.0000 	   26.9145
    0.2976 	   45.2988 	    4.0000 	   43.0000 	   27.2736
    0.4807 	   45.3930 	    4.0000 	   43.0000 	   27.6506
    0.3738 	   45.4825 	    4.0000 	   43.0000 	   28.0086
    0.4501 	   45.5730 	    4.0000 	   43.0000 	   28.3696
    0.4196 	   45.6645 	    4.0000 	   43.0000 	   28.7356
    0.3891 	   45.7535 	    4.0000 	   43.0000 	   29.0917
    0.4959 	   45.8485 	    4.0000 	   43.0000 	   29.4717
    0.5722 	   45.9375 	    4.0000 	   43.0000 	   29.8277
    0.4349 	   46.0303 	    4.0000 	   43.0000 	   30.1987
    0.4196 	   46.1245 	    4.0000 	   43.0000 	   30.5757
    0.4501 	   46.2180 	    4.0000 	   43.0000 	   30.9498
    0.3738 	   46.3103 	    4.0000 	   43.0000 	   31.3188
    0.1907 	   46.4043 	    4.0000 	   43.0000 	   31.6948
    0.2213 	   46.4960 	    4.0000 	   43.0000 	   32.0618
    0.3281 	   46.5885 	    4.0000 	   43.0000 	   32.4318
    0.3738 	   46.6810 	    4.0000 	   43.0000 	   32.8019
    0.3128 	   46.7725 	    4.0000 	   43.0000 	   33.1679
    0.3433 	   46.8658 	    4.0000 	   43.0000 	   33.5409
    0.4044 	   46.9565 	    4.0000 	   43.0000 	   33.9039
    0.4349 	   47.0510 	    4.0000 	   43.0000 	   34.2820
    0.4654 	   47.1408 	    4.0000 	   43.0000 	   34.6410
    0.3586 	   47.2350 	    4.0000 	   43.0000 	   35.0180
    0.4654 	   47.3300 	    4.0000 	   43.0000 	   35.3980
    0.4196 	   47.4215 	    4.0000 	   43.0000 	   35.7640
    0.3433 	   47.5128 	    4.0000 	   43.0000 	   36.1291
    0.4349 	   47.6053 	    4.0000 	   43.0000 	   36.4991
    0.3891 	   47.6978 	    4.0000 	   43.0000 	   36.8691
    0.5722 	   47.7900 	    4.0000 	   43.0000 	   37.2381
    0.3128 	   47.8838 	    4.0000 	   43.0000 	   37.6131
    0.3586 	   47.9755 	    4.0000 	   43.0000 	   37.9802
    0.2976 	   48.0705 	    4.0000 	   43.0000 	   38.3602
    0.3738 	   48.1623 	    4.0000 	   43.0000 	   38.7272
    0.4654 	   48.2533 	    4.0000 	   43.0000 	   39.0912
    0.3738 	   48.3470 	    4.0000 	   43.0000 	   39.4662
    0.6485 	   48.4390 	    4.0000 	   43.0000 	   39.8343
    0.4044 	   48.5300 	    4.0000 	   43.0000 	   40.1983
    0.1755 	   48.6245 	    4.0000 	   43.0000 	   40.5763
    0.3586 	   48.7163 	    4.0000 	   43.0000 	   40.9433
    0.4044 	   48.8088 	    4.0000 	   43.0000 	   41.3134
    0.3891 	   48.9028 	    4.0000 	   43.0000 	   41.6894
    0.3128 	   48.9960 	    4.0000 	   43.0000 	   42.0624
    0.4196 	   49.0900 	    4.0000 	   43.0000 	   42.4384
    0.3891 	   49.1843 	    4.0000 	   43.0000 	   42.8154
    0.3281 	   49.2775 	    4.0000 	   43.0000 	   43.1885
    0.2823 	   49.3718 	    4.0000 	   43.0000 	   43.5655
    0.0839 	   49.4673 	    4.0000 	   43.0000 	   43.9475
    0.1755 	   49.5640 	    4.0000 	   43.0000 	   44.3345
    0.4349 	   49.6590 	    4.0000 	   43.0000 	   44.7145
    0.3281 	   49.7563 	    4.0000 	   43.0000 	   45.1036
    0.2976 	   49.8505 	    4.0000 	   43.0000 	   45.4806
    0.2823 	   49.9453 	    4.0000 	   43.0000 	   45.8586
    0.3738 	   50.0410 	    4.0000 	   43.0000 	   46.2416
    0.4654 	   50.1330 	    4.0000 	   43.0000 	   46.6097
    0.2213 	   50.2325 	    4.0000 	   43.0000 	   47.0077
    0.3281 	   50.3293 	    4.0000 	   43.0000 	   47.3947
    0.2976 	   50.4260 	    4.0000 	   43.0000 	   47.7817
    0.3891 	   50.5205 	    4.0000 	   43.0000 	   48.1597
    0.2365 	   50.6205 	    4.0000 	   43.0000 	   48.5598
    0.4044 	   50.7160 	    4.0000 	   43.0000 	   48.9418
    0.2518 	   50.8158 	    4.0000 	   43.0000 	   49.3408
    0.0381 	   50.9118 	    4.0000 	   43.0000 	   49.7248
    0.4196 	   51.0085 	    4.0000 	   43.0000 	   50.1119
    0.3433 	   51.1093 	    4.0000 	   43.0000 	   50.5149
    0.2518 	   51.2083 	    4.0000 	   43.0000 	   50.9109
    0.2823 	   51.3093 	    4.0000 	   43.0000 	   51.3149
    0.4501 	   51.4063 	    4.0000 	   43.0000 	   51.7029
    0.3738 	   51.5020 	    4.0000 	   43.0000 	   52.0860
    0.5112 	   51.6078 	    4.0000 	   43.0000 	   52.5090
    0.2518 	   51.7033 	    4.0000 	   43.0000 	   52.8910
    0.3281 	   51.8003 	    4.0000 	   43.0000 	   53.2790
    0.2976 	   51.8943 	    4.0000 	   43.0000 	   53.6551
    0.2823 	   51.9863 	    4.0000 	   43.0000 	   54.0231
    0.1297 	   52.0815 	    4.0000 	   43.0000 	   54.4041
    0.2060 	   52.1778 	    4.0000 	   43.0000 	   54.7881
    0.1602 	   52.2698 	    4.0000 	   43.0000 	   55.1571
    0.2976 	   52.3628 	    4.0000 	   43.0000 	   55.5292
    0.3738 	   52.4568 	    4.0000 	   43.0000 	   55.9052
    0.3586 	   52.5538 	    4.0000 	   43.0000 	   56.2932
    0.3281 	   52.6488 	    4.0000 	   43.0000 	   56.6732
    0.2060 	   52.7415 	    4.0000 	   43.0000 	   57.0443
    0.1297 	   52.8358 	    4.0000 	   43.0000 	   57.4213
    0.3891 	   52.9340 	    4.0000 	   43.0000 	   57.8143
    0.3433 	   53.0308 	    4.0000 	   43.0000 	   58.2013
    0.2213 	   53.1233 	    4.0000 	   43.0000 	   58.5713
    0.3891 	   53.2180 	    4.0000 	   43.0000 	   58.9504
    0.2518 	   53.3160 	    4.0000 	   43.0000 	   59.3424
    0.4654 	   53.4125 	    4.0000 	   43.0000 	   59.7284
    0.4196 	   53.5133 	    4.0000 	   44.0000 	    0.1314
    0.0381 	   53.6095 	    4.0000 	   44.0000 	    0.5165
    0.1450 	   53.7045 	    4.0000 	   44.0000 	    0.8965
    0.2060 	   53.8018 	    4.0000 	   44.0000 	    1.2855
    0.3281 	   53.8958 	    4.0000 	   44.0000 	    1.6615
    0.0687 	   53.9923 	    4.0000 	   44.0000 	    2.0475
    0.0687 	   54.0915 	    4.0000 	   44.0000 	    2.4446
    0.1755 	   54.1905 	    4.0000 	   44.0000 	    2.8406
    0.1907 	   54.2905 	    4.0000 	   44.0000 	    3.2396
    0.3281 	   54.3878 	    4.0000 	   44.0000 	    3.6286
    0.3128 	   54.4868 	    4.0000 	   44.0000 	    4.0247
    0.2670 	   54.5843 	    4.0000 	   44.0000 	    4.4147
    0.0839 	   54.6793 	    4.0000 	   44.0000 	    4.7947
    0.3586 	   54.7765 	    4.0000 	   44.0000 	    5.1837
    0.3433 	   54.8770 	    4.0000 	   44.0000 	    5.5857
    0.1297 	   54.9738 	    4.0000 	   44.0000 	    5.9728
    0.2365 	   55.0723 	    4.0000 	   44.0000 	    6.3668
    0.2365 	   55.1705 	    4.0000 	   44.0000 	    6.7598
    0.2670 	   55.2725 	    4.0000 	   44.0000 	    7.1678
    0.1297 	   55.3698 	    4.0000 	   44.0000 	    7.5569
    0.3433 	   55.4710 	    4.0000 	   44.0000 	    7.9619
    0.1907 	   55.5738 	    4.0000 	   44.0000 	    8.3729
    0.3738 	   55.6705 	    4.0000 	   44.0000 	    8.7599
    0.2060 	   55.7690 	    4.0000 	   44.0000 	    9.1539
    0.3281 	   55.8655 	    4.0000 	   44.0000 	    9.5400
    0.1297 	   55.9640 	    4.0000 	   44.0000 	    9.9340
    0.2976 	   56.0615 	    4.0000 	   44.0000 	   10.3240
    0.2976 	   56.1575 	    4.0000 	   44.0000 	   10.7080
    0.2823 	   56.2558 	    4.0000 	   44.0000 	   11.1011
    0.2060 	   56.3550 	    4.0000 	   44.0000 	   11.4981
    0.2670 	   56.4530 	    4.0000 	   44.0000 	   11.8901
    0.2213 	   56.5510 	    4.0000 	   44.0000 	   12.2821
    0.2213 	   56.6480 	    4.0000 	   44.0000 	   12.6701
    0.2670 	   56.7443 	    4.0000 	   44.0000 	   13.0552
    0.2976 	   56.8460 	    4.0000 	   44.0000 	   13.4622
    0.2670 	   56.9435 	    4.0000 	   44.0000 	   13.8522
    0.0992 	   57.0460 	    4.0000 	   44.0000 	   14.2622
    0.1907 	   57.1485 	    4.0000 	   44.0000 	   14.6723
    0.1602 	   57.2475 	    4.0000 	   44.0000 	   15.0683
    0.2976 	   57.3465 	    4.0000 	   44.0000 	   15.4643
    0.2670 	   57.4435 	    4.0000 	   44.0000 	   15.8523
    0.0534 	   57.5408 	    4.0000 	   44.0000 	   16.2414
    0.2518 	   57.6423 	    4.0000 	   44.0000 	   16.6474
    0.3433 	   57.7435 	    4.0000 	   44.0000 	   17.0524
    0.3433 	   57.8458 	    4.0000 	   44.0000 	   17.4614
    0.2365 	   57.9463 	    4.0000 	   44.0000 	   17.8634
    0.1602 	   58.0455 	    4.0000 	   44.0000 	   18.2605
    0.1144 	   58.1445 	    4.0000 	   44.0000 	   18.6565
    0.3128 	   58.2433 	    4.0000 	   44.0000 	   19.0515
    0.2060 	   58.3443 	    4.0000 	   44.0000 	   19.4555
    0.2213 	   58.4428 	    4.0000 	   44.0000 	   19.8496
    0.2060 	   58.5413 	    4.0000 	   44.0000 	   20.2436
    0.0687 	   58.6403 	    4.0000 	   44.0000 	   20.6396
    0.1297 	   58.7425 	    4.0000 	   44.0000 	   21.0476
    0.1907 	   58.8435 	    4.0000 	   44.0000 	   21.4516
    0.2823 	   58.9433 	    4.0000 	   44.0000 	   21.8507
    0.1602 	   59.0460 	    4.0000 	   44.0000 	   22.2617
    0.1755 	   59.1465 	    4.0000 	   44.0000 	   22.6637
    0.1144 	   59.2440 	    4.0000 	   44.0000 	   23.0537
    0.2518 	   59.3418 	    4.0000 	   44.0000 	   23.4448
    0.1755 	   59.4458 	    4.0000 	   44.0000 	   23.8608
    0.1144 	   59.5465 	    4.0000 	   44.0000 	   24.2638
    0.4044 	   59.6443 	    4.0000 	   44.0000 	   24.6548
    0.3738 	   59.7423 	    4.0000 	   44.0000 	   25.0469
    0.1297 	   59.8408 	    4.0000 	   44.0000 	   25.4409
    0.1755 	   59.9385 	    4.0000 	   44.0000 	   25.8319
    0.1907 	   60.0373 	    4.0000 	   44.0000 	   26.2269
    0.3586 	   60.1358 	    4.0000 	   44.0000 	   26.6209
    0.3128 	   60.2360 	    4.0000 	   44.0000 	   27.0220
    0.0839 	   60.3338 	    4.0000 	   44.0000 	   27.4130
    0.2670 	   60.4325 	    4.0000 	   44.0000 	   27.8080
    0.2213 	   60.5310 	    4.0000 	   44.0000 	   28.2020
    0.1144 	   60.6023 	    4.0000 	   44.0000 	   28.4871