File: instron/long_1W15L_drag30_spd15.txt
Thayer School of Engineering        Instron 4442 Mechanical Testing System
6/28/2018 4:33:15 AM

  Force (N)	Extension (mm)	Not Used	Not Used	Not Used	     Hour	    Minute	    Second
   -0.0992 	    0.2563 	    4.0000 	   33.0000 	   51.2286
    0.2365 	    0.3535 	    4.0000 	   33.0000 	   51.6176
    0.1144 	    0.4418 	    4.0000 	   33.0000 	   51.9706
    0.2823 	    0.5203 	    4.0000 	   33.0000 	   52.2847
    0.1755 	    0.5993 	    4.0000 	   33.0000 	   52.6007
    0.3281 	    0.6795 	    4.0000 	   33.0000 	   52.9217
    0.2060 	    0.7640 	    4.0000 	   33.0000 	   53.2597
    0.2060 	    0.8435 	    4.0000 	   33.0000 	   53.5777
    0.3128 	    0.9003 	    4.0000 	   33.0000 	   53.8047
    0.2060 	    0.9560 	    4.0000 	   33.0000 	   54.0278
    0.2976 	    1.0130 	    4.0000 	   33.0000 	   54.2558
    0.1907 	    1.0755 	    4.0000 	   33.0000 	   54.5058
    0.1907 	    1.1270 	    4.0000 	   33.0000 	   54.7118
    0.1450 	    1.1758 	    4.0000 	   33.0000 	   54.9068
    0.4654 	    1.2260 	    4.0000 	   33.0000 	   55.1078
    0.1297 	    1.2798 	    4.0000 	   33.0000 	   55.3228
    0.3128 	    1.3273 	    4.0000 	   33.0000 	   55.5128
    0.3281 	    1.3750 	    4.0000 	   33.0000 	   55.7039
    0.2213 	    1.4253 	    4.0000 	   33.0000 	   55.9049
    0.2060 	    1.4723 	    4.0000 	   33.0000 	   56.0929
    0.2670 	    1.5205 	    4.0000 	   33.0000 	   56.2859
    0.2823 	    1.5710 	    4.0000 	   33.0000 	   56.4869
    0.2060 	    1.6273 	    4.0000 	   33.0000 	   56.7119
    0.3738 	    1.6760 	    4.0000 	   33.0000 	   56.9069
    0.1907 	    1.7253 	    4.0000 	   33.0000 	   57.1039
    0.3281 	    1.7743 	    4.0000 	   33.0000 	   57.2999
    0.2823 	    1.8255 	    4.0000 	   33.0000 	   57.5050
    0.2823 	    1.8730 	    4.0000 	   33.0000 	   57.6950
    0.2060 	    1.9268 	    4.0000 	   33.0000 	   57.9100
    0.3281 	    1.9813 	    4.0000 	   33.0000 	   58.1280
    0.3128 	    2.0303 	    4.0000 	   33.0000 	   58.3240
    0.3738 	    2.0815 	    4.0000 	   33.0000 	   58.5290
    0.3128 	    2.1308 	    4.0000 	   33.0000 	   58.7260
    0.2213 	    2.1788 	    4.0000 	   33.0000 	   58.9180
    0.1297 	    2.2280 	    4.0000 	   33.0000 	   59.1151
    0.2823 	    2.2765 	    4.0000 	   33.0000 	   59.3091
    0.4501 	    2.3295 	    4.0000 	   33.0000 	   59.5211
    0.2213 	    2.3785 	    4.0000 	   33.0000 	   59.7171
    0.1144 	    2.4268 	    4.0000 	   33.0000 	   59.9091
    0.2518 	    2.4763 	    4.0000 	   34.0000 	    0.1081
    0.1297 	    2.5260 	    4.0000 	   34.0000 	    0.3071
    0.2670 	    2.5780 	    4.0000 	   34.0000 	    0.5151
    0.4196 	    2.6273 	    4.0000 	   34.0000 	    0.7121
    0.2518 	    2.6765 	    4.0000 	   34.0000 	    0.9092
    0.3281 	    2.7263 	    4.0000 	   34.0000 	    1.1082
    0.2823 	    2.7768 	    4.0000 	   34.0000 	    1.3102
    0.3433 	    2.8298 	    4.0000 	   34.0000 	    1.5222
   -0.0381 	    2.8810 	    4.0000 	   34.0000 	    1.7272
    0.3433 	    2.9318 	    4.0000 	   34.0000 	    1.9302
    0.1450 	    2.9830 	    4.0000 	   34.0000 	    2.1352
    0.2060 	    3.0345 	    4.0000 	   34.0000 	    2.3412
    0.2365 	    3.0885 	    4.0000 	   34.0000 	    2.5572
    0.2823 	    3.1388 	    4.0000 	   34.0000 	    2.7583
    0.2365 	    3.1890 	    4.0000 	   34.0000 	    2.9593
    0.1450 	    3.2393 	    4.0000 	   34.0000 	    3.1603
    0.2976 	    3.2928 	    4.0000 	   34.0000 	    3.3743
    0.3281 	    3.3465 	    4.0000 	   34.0000 	    3.5893
    0.3433 	    3.3973 	    4.0000 	   34.0000 	    3.7913
    0.3586 	    3.4493 	    4.0000 	   34.0000 	    4.0003
    0.1907 	    3.4998 	    4.0000 	   34.0000 	    4.2023
    0.4044 	    3.5523 	    4.0000 	   34.0000 	    4.4124
    0.2213 	    3.6055 	    4.0000 	   34.0000 	    4.6254
    0.2213 	    3.6573 	    4.0000 	   34.0000 	    4.8324
    0.4044 	    3.7075 	    4.0000 	   34.0000 	    5.0334
    0.2060 	    3.7603 	    4.0000 	   34.0000 	    5.2444
    0.2213 	    3.8130 	    4.0000 	   34.0000 	    5.4554
   -0.0229 	    3.8675 	    4.0000 	   34.0000 	    5.6734
    0.1907 	    3.9200 	    4.0000 	   34.0000 	    5.8834
    0.0992 	    3.9728 	    4.0000 	   34.0000 	    6.0945
    0.3738 	    4.0260 	    4.0000 	   34.0000 	    6.3075
    0.3586 	    4.0800 	    4.0000 	   34.0000 	    6.5235
   -0.0687 	    4.1333 	    4.0000 	   34.0000 	    6.7365
   -0.0229 	    4.1865 	    4.0000 	   34.0000 	    6.9495
    0.2213 	    4.2390 	    4.0000 	   34.0000 	    7.1595
    0.1602 	    4.2940 	    4.0000 	   34.0000 	    7.3795
    0.3586 	    4.3495 	    4.0000 	   34.0000 	    7.6015
    0.4044 	    4.4005 	    4.0000 	   34.0000 	    7.8055
    0.3738 	    4.4600 	    4.0000 	   34.0000 	    8.0436
    0.3738 	    4.5193 	    4.0000 	   34.0000 	    8.2806
    0.2976 	    4.5755 	    4.0000 	   34.0000 	    8.5056
    0.2823 	    4.6283 	    4.0000 	   34.0000 	    8.7166
    0.2060 	    4.6865 	    4.0000 	   34.0000 	    8.9496
    0.3586 	    4.7463 	    4.0000 	   34.0000 	    9.1886
    0.2976 	    4.8055 	    4.0000 	   34.0000 	    9.4256
    0.2213 	    4.8590 	    4.0000 	   34.0000 	    9.6397
    0.2365 	    4.9193 	    4.0000 	   34.0000 	    9.8807
    0.3891 	    4.9758 	    4.0000 	   34.0000 	   10.1067
    0.2823 	    5.0313 	    4.0000 	   34.0000 	   10.3287
    0.2976 	    5.0875 	    4.0000 	   34.0000 	   10.5537
    0.3586 	    5.1425 	    4.0000 	   34.0000 	   10.7737
    0.2518 	    5.1988 	    4.0000 	   34.0000 	   10.9987
    0.1450 	    5.2588 	    4.0000 	   34.0000 	   11.2387
    0.1907 	    5.3125 	    4.0000 	   34.0000 	   11.4538
    0.1297 	    5.3685 	    4.0000 	   34.0000 	   11.6778
    0.1907 	    5.4298 	    4.0000 	   34.0000 	   11.9228
    0.2213 	    5.4895 	    4.0000 	   34.0000 	   12.1618
    0.2213 	    5.5498 	    4.0000 	   34.0000 	   12.4028
    0.2823 	    5.6078 	    4.0000 	   34.0000 	   12.6348
    0.2365 	    5.6655 	    4.0000 	   34.0000 	   12.8658
    0.0687 	    5.7230 	    4.0000 	   34.0000 	   13.0959
    0.1907 	    5.7838 	    4.0000 	   34.0000 	   13.3389
    0.3128 	    5.8423 	    4.0000 	   34.0000 	   13.5729
    0.2213 	    5.9000 	    4.0000 	   34.0000 	   13.8029
    0.2670 	    5.9618 	    4.0000 	   34.0000 	   14.0499
    0.2518 	    6.0248 	    4.0000 	   34.0000 	   14.3019
    0.2823 	    6.0848 	    4.0000 	   34.0000 	   14.5419
   -0.0076 	    6.1390 	    4.0000 	   34.0000 	   14.7589
    0.2976 	    6.2000 	    4.0000 	   34.0000 	   15.0030
    0.3281 	    6.2638 	    4.0000 	   34.0000 	   15.2580
    0.2976 	    6.3228 	    4.0000 	   34.0000 	   15.4940
    0.3891 	    6.3793 	    4.0000 	   34.0000 	   15.7200
    0.1602 	    6.4430 	    4.0000 	   34.0000 	   15.9750
    0.2213 	    6.5048 	    4.0000 	   34.0000 	   16.2220
    0.3433 	    6.5673 	    4.0000 	   34.0000 	   16.4720
    0.2670 	    6.6240 	    4.0000 	   34.0000 	   16.6991
    0.3433 	    6.6868 	    4.0000 	   34.0000 	   16.9501
    0.2518 	    6.7505 	    4.0000 	   34.0000 	   17.2051
    0.2823 	    6.8145 	    4.0000 	   34.0000 	   17.4611
    0.2365 	    6.8710 	    4.0000 	   34.0000 	   17.6871
    0.2976 	    6.9313 	    4.0000 	   34.0000 	   17.9271
    0.4196 	    6.9928 	    4.0000 	   34.0000 	   18.1741
    0.2976 	    7.0563 	    4.0000 	   34.0000 	   18.4282
    0.3586 	    7.1153 	    4.0000 	   34.0000 	   18.6642
    0.2823 	    7.1723 	    4.0000 	   34.0000 	   18.8922
    0.2518 	    7.2308 	    4.0000 	   34.0000 	   19.1262
    0.2823 	    7.2905 	    4.0000 	   34.0000 	   19.3652
    0.4654 	    7.3520 	    4.0000 	   34.0000 	   19.6112
    0.2365 	    7.4128 	    4.0000 	   34.0000 	   19.8542
    0.2213 	    7.4785 	    4.0000 	   34.0000 	   20.1173
    0.2213 	    7.5443 	    4.0000 	   34.0000 	   20.3803
    0.2518 	    7.6070 	    4.0000 	   34.0000 	   20.6313
    0.3433 	    7.6650 	    4.0000 	   34.0000 	   20.8633
    0.2823 	    7.7305 	    4.0000 	   34.0000 	   21.1253
    0.3586 	    7.7913 	    4.0000 	   34.0000 	   21.3683
    0.2365 	    7.8528 	    4.0000 	   34.0000 	   21.6143
    0.2213 	    7.9130 	    4.0000 	   34.0000 	   21.8554
    0.3433 	    7.9765 	    4.0000 	   34.0000 	   22.1094
    0.1297 	    8.0408 	    4.0000 	   34.0000 	   22.3664
    0.1602 	    8.1028 	    4.0000 	   34.0000 	   22.6144
    0.2060 	    8.1643 	    4.0000 	   34.0000 	   22.8604
    0.2213 	    8.2310 	    4.0000 	   34.0000 	   23.1274
    0.0534 	    8.2968 	    4.0000 	   34.0000 	   23.3904
    0.2823 	    8.3618 	    4.0000 	   34.0000 	   23.6505
    0.3891 	    8.4233 	    4.0000 	   34.0000 	   23.8965
    0.2518 	    8.4885 	    4.0000 	   34.0000 	   24.1575
    0.2060 	    8.5533 	    4.0000 	   34.0000 	   24.4165
    0.0992 	    8.6150 	    4.0000 	   34.0000 	   24.6635
    0.1144 	    8.6795 	    4.0000 	   34.0000 	   24.9215
    0.1450 	    8.7458 	    4.0000 	   34.0000 	   25.1865
    0.0076 	    8.8078 	    4.0000 	   34.0000 	   25.4346
    0.2976 	    8.8700 	    4.0000 	   34.0000 	   25.6836
    0.3128 	    8.9303 	    4.0000 	   34.0000 	   25.9246
    0.2518 	    8.9960 	    4.0000 	   34.0000 	   26.1876
    0.1602 	    9.0640 	    4.0000 	   34.0000 	   26.4596
    0.3128 	    9.1278 	    4.0000 	   34.0000 	   26.7146
    0.2976 	    9.1900 	    4.0000 	   34.0000 	   26.9636
    0.2823 	    9.2570 	    4.0000 	   34.0000 	   27.2317
    0.2518 	    9.3233 	    4.0000 	   34.0000 	   27.4967
   -0.0534 	    9.3843 	    4.0000 	   34.0000 	   27.7407
    0.4044 	    9.4475 	    4.0000 	   34.0000 	   27.9937
    0.3281 	    9.5140 	    4.0000 	   34.0000 	   28.2597
    0.1450 	    9.5743 	    4.0000 	   34.0000 	   28.5007
    0.2518 	    9.6378 	    4.0000 	   34.0000 	   28.7547
    0.2213 	    9.7043 	    4.0000 	   34.0000 	   29.0208
    0.3128 	    9.7723 	    4.0000 	   34.0000 	   29.2928
    0.2670 	    9.8403 	    4.0000 	   34.0000 	   29.5648
    0.1297 	    9.9025 	    4.0000 	   34.0000 	   29.8138
    0.3738 	    9.9675 	    4.0000 	   34.0000 	   30.0738
    0.2060 	   10.0318 	    4.0000 	   34.0000 	   30.3298
    0.2213 	   10.0978 	    4.0000 	   34.0000 	   30.5949
    0.2823 	   10.1615 	    4.0000 	   34.0000 	   30.8499
   -0.0992 	   10.2323 	    4.0000 	   34.0000 	   31.1329
    0.2060 	   10.3010 	    4.0000 	   34.0000 	   31.4069
    0.2060 	   10.3655 	    4.0000 	   34.0000 	   31.6649
    0.3891 	   10.4300 	    4.0000 	   34.0000 	   31.9229
    0.2976 	   10.4945 	    4.0000 	   34.0000 	   32.1809
    0.2976 	   10.5588 	    4.0000 	   34.0000 	   32.4380
    0.3433 	   10.6253 	    4.0000 	   34.0000 	   32.7040
    0.3128 	   10.6873 	    4.0000 	   34.0000 	   32.9520
    0.0839 	   10.7495 	    4.0000 	   34.0000 	   33.2010
    0.1144 	   10.8128 	    4.0000 	   34.0000 	   33.4540
    0.3891 	   10.8770 	    4.0000 	   34.0000 	   33.7110
    0.1144 	   10.9433 	    4.0000 	   34.0000 	   33.9760
    0.2518 	   11.0098 	    4.0000 	   34.0000 	   34.2421
    0.3281 	   11.0753 	    4.0000 	   34.0000 	   34.5041
    0.3281 	   11.1375 	    4.0000 	   34.0000 	   34.7531
    0.2976 	   11.2043 	    4.0000 	   34.0000 	   35.0201
    0.2976 	   11.2758 	    4.0000 	   34.0000 	   35.3061
    0.2365 	   11.3428 	    4.0000 	   34.0000 	   35.5741
    0.4044 	   11.4075 	    4.0000 	   34.0000 	   35.8332
    0.2670 	   11.4778 	    4.0000 	   34.0000 	   36.1142
    0.2823 	   11.5433 	    4.0000 	   34.0000 	   36.3762
    0.2365 	   11.6068 	    4.0000 	   34.0000 	   36.6302
    0.3738 	   11.6730 	    4.0000 	   34.0000 	   36.8952
    0.2518 	   11.7440 	    4.0000 	   34.0000 	   37.1792
    0.3128 	   11.8098 	    4.0000 	   34.0000 	   37.4422
    0.3128 	   11.8770 	    4.0000 	   34.0000 	   37.7113
    0.2518 	   11.9420 	    4.0000 	   34.0000 	   37.9713
    0.3281 	   12.0130 	    4.0000 	   34.0000 	   38.2553
    0.0534 	   12.0855 	    4.0000 	   34.0000 	   38.5453
    0.2518 	   12.1518 	    4.0000 	   34.0000 	   38.8093
    0.2670 	   12.2200 	    4.0000 	   34.0000 	   39.0833
    0.1907 	   12.2920 	    4.0000 	   34.0000 	   39.3714
    0.2518 	   12.3623 	    4.0000 	   34.0000 	   39.6524
    0.2823 	   12.4283 	    4.0000 	   34.0000 	   39.9164
    0.2060 	   12.5005 	    4.0000 	   34.0000 	   40.2054
    0.3281 	   12.5738 	    4.0000 	   34.0000 	   40.4984
    0.3586 	   12.6415 	    4.0000 	   34.0000 	   40.7694
    0.2670 	   12.7093 	    4.0000 	   34.0000 	   41.0405
    0.2213 	   12.7798 	    4.0000 	   34.0000 	   41.3225
    0.0687 	   12.8463 	    4.0000 	   34.0000 	   41.5885
    0.2823 	   12.9115 	    4.0000 	   34.0000 	   41.8495
    0.2823 	   12.9815 	    4.0000 	   34.0000 	   42.1295
    0.2518 	   13.0488 	    4.0000 	   34.0000 	   42.3985
    0.2670 	   13.1153 	    4.0000 	   34.0000 	   42.6645
    0.3738 	   13.1803 	    4.0000 	   34.0000 	   42.9246
    0.2365 	   13.2498 	    4.0000 	   34.0000 	   43.2026
    0.3128 	   13.3165 	    4.0000 	   34.0000 	   43.4696
    0.4349 	   13.3833 	    4.0000 	   34.0000 	   43.7366
    0.2518 	   13.4523 	    4.0000 	   34.0000 	   44.0126
    0.2518 	   13.5233 	    4.0000 	   34.0000 	   44.2966
    0.3586 	   13.5913 	    4.0000 	   34.0000 	   44.5687
    0.3738 	   13.6593 	    4.0000 	   34.0000 	   44.8407
    0.2518 	   13.7320 	    4.0000 	   34.0000 	   45.1317
    0.1907 	   13.8008 	    4.0000 	   34.0000 	   45.4067
    0.3738 	   13.8678 	    4.0000 	   34.0000 	   45.6747
    0.4654 	   13.9353 	    4.0000 	   34.0000 	   45.9447
    0.3281 	   14.0053 	    4.0000 	   34.0000 	   46.2247
    0.3738 	   14.0728 	    4.0000 	   34.0000 	   46.4948
    0.2823 	   14.1415 	    4.0000 	   34.0000 	   46.7698
    0.2518 	   14.2115 	    4.0000 	   34.0000 	   47.0498
    0.3891 	   14.2808 	    4.0000 	   34.0000 	   47.3268
    0.3128 	   14.3493 	    4.0000 	   34.0000 	   47.5998
    0.1755 	   14.4178 	    4.0000 	   34.0000 	   47.8748
    0.3433 	   14.4863 	    4.0000 	   34.0000 	   48.1489
    0.4959 	   14.5550 	    4.0000 	   34.0000 	   48.4239
    0.4196 	   14.6253 	    4.0000 	   34.0000 	   48.7049
    0.1602 	   14.6973 	    4.0000 	   34.0000 	   48.9919
    0.3128 	   14.7718 	    4.0000 	   34.0000 	   49.2899
    0.3281 	   14.8428 	    4.0000 	   34.0000 	   49.5739
    0.2518 	   14.9120 	    4.0000 	   34.0000 	   49.8510
    0.3738 	   14.9840 	    4.0000 	   34.0000 	   50.1390
    0.1602 	   15.0585 	    4.0000 	   34.0000 	   50.4370
    0.3891 	   15.1263 	    4.0000 	   34.0000 	   50.7080
    0.2518 	   15.1950 	    4.0000 	   34.0000 	   50.9830
    0.4501 	   15.2683 	    4.0000 	   34.0000 	   51.2760
    0.3433 	   15.3370 	    4.0000 	   34.0000 	   51.5511
    0.2670 	   15.4063 	    4.0000 	   34.0000 	   51.8281
    0.3433 	   15.4750 	    4.0000 	   34.0000 	   52.1031
    0.2823 	   15.5460 	    4.0000 	   34.0000 	   52.3871
    0.2823 	   15.6160 	    4.0000 	   34.0000 	   52.6671
    0.0229 	   15.6850 	    4.0000 	   34.0000 	   52.9431
    0.3128 	   15.7590 	    4.0000 	   34.0000 	   53.2391
   -0.0687 	   15.8315 	    4.0000 	   34.0000 	   53.5292
    0.2518 	   15.9008 	    4.0000 	   34.0000 	   53.8062
    0.2060 	   15.9705 	    4.0000 	   34.0000 	   54.0852
    0.2823 	   16.0455 	    4.0000 	   34.0000 	   54.3852
    0.4196 	   16.1188 	    4.0000 	   34.0000 	   54.6782
    0.4196 	   16.1893 	    4.0000 	   34.0000 	   54.9602
    0.3128 	   16.2635 	    4.0000 	   34.0000 	   55.2573
    0.2823 	   16.3318 	    4.0000 	   34.0000 	   55.5303
    0.4501 	   16.4005 	    4.0000 	   34.0000 	   55.8053
    0.3433 	   16.4713 	    4.0000 	   34.0000 	   56.0883
    0.2976 	   16.5425 	    4.0000 	   34.0000 	   56.3733
    0.3128 	   16.6123 	    4.0000 	   34.0000 	   56.6523
    0.4196 	   16.6813 	    4.0000 	   34.0000 	   56.9284
    0.3281 	   16.7568 	    4.0000 	   34.0000 	   57.2304
    0.3433 	   16.8278 	    4.0000 	   34.0000 	   57.5144
    0.3281 	   16.8983 	    4.0000 	   34.0000 	   57.7964
    0.3433 	   16.9700 	    4.0000 	   34.0000 	   58.0834
    0.4959 	   17.0405 	    4.0000 	   34.0000 	   58.3654
    0.3128 	   17.1133 	    4.0000 	   34.0000 	   58.6565
    0.2518 	   17.1842 	    4.0000 	   34.0000 	   58.9405
    0.3891 	   17.2535 	    4.0000 	   34.0000 	   59.2175
    0.2976 	   17.3255 	    4.0000 	   34.0000 	   59.5055
    0.3891 	   17.3960 	    4.0000 	   34.0000 	   59.7875
    0.2060 	   17.4690 	    4.0000 	   35.0000 	    0.0795
    0.3586 	   17.5400 	    4.0000 	   35.0000 	    0.3636
    0.3586 	   17.6100 	    4.0000 	   35.0000 	    0.6436
    0.0534 	   17.6820 	    4.0000 	   35.0000 	    0.9316
    0.4196 	   17.7548 	    4.0000 	   35.0000 	    1.2226
    0.4807 	   17.8315 	    4.0000 	   35.0000 	    1.5296
    0.3586 	   17.9173 	    4.0000 	   35.0000 	    1.8726
    0.4654 	   17.9900 	    4.0000 	   35.0000 	    2.1637
    0.3586 	   18.0640 	    4.0000 	   35.0000 	    2.4597
    0.2518 	   18.1345 	    4.0000 	   35.0000 	    2.7417
    0.3433 	   18.2055 	    4.0000 	   35.0000 	    3.0257
    0.2365 	   18.2812 	    4.0000 	   35.0000 	    3.3287
    0.3281 	   18.3560 	    4.0000 	   35.0000 	    3.6277
    0.2365 	   18.4303 	    4.0000 	   35.0000 	    3.9248
    0.2823 	   18.5060 	    4.0000 	   35.0000 	    4.2278
    0.4807 	   18.5780 	    4.0000 	   35.0000 	    4.5158
    0.4959 	   18.6508 	    4.0000 	   35.0000 	    4.8068
    0.4044 	   18.7245 	    4.0000 	   35.0000 	    5.1018
    0.1144 	   18.8013 	    4.0000 	   35.0000 	    5.4088
    0.2670 	   18.8783 	    4.0000 	   35.0000 	    5.7169
    0.3128 	   18.9505 	    4.0000 	   35.0000 	    6.0059
    0.3891 	   19.0250 	    4.0000 	   35.0000 	    6.3029
    0.4196 	   19.0980 	    4.0000 	   35.0000 	    6.5949
    0.2823 	   19.1720 	    4.0000 	   35.0000 	    6.8909
    0.3128 	   19.2450 	    4.0000 	   35.0000 	    7.1829
    0.2670 	   19.3235 	    4.0000 	   35.0000 	    7.4970
    0.4044 	   19.4015 	    4.0000 	   35.0000 	    7.8090
    0.3433 	   19.4738 	    4.0000 	   35.0000 	    8.0980
    0.2976 	   19.5478 	    4.0000 	   35.0000 	    8.3940
    0.1450 	   19.6208 	    4.0000 	   35.0000 	    8.6860
    0.2213 	   19.6930 	    4.0000 	   35.0000 	    8.9750
    0.3738 	   19.7700 	    4.0000 	   35.0000 	    9.2831
    0.3891 	   19.8413 	    4.0000 	   35.0000 	    9.5681
    0.3128 	   19.9168 	    4.0000 	   35.0000 	    9.8701
    0.2823 	   19.9935 	    4.0000 	   35.0000 	   10.1771
    0.3281 	   20.0730 	    4.0000 	   35.0000 	   10.4951
    0.0229 	   20.1510 	    4.0000 	   35.0000 	   10.8072
    0.2365 	   20.2250 	    4.0000 	   35.0000 	   11.1032
    0.2213 	   20.3000 	    4.0000 	   35.0000 	   11.4032
    0.3738 	   20.3740 	    4.0000 	   35.0000 	   11.6992
    0.3128 	   20.4480 	    4.0000 	   35.0000 	   11.9952
    0.3281 	   20.5250 	    4.0000 	   35.0000 	   12.3032
    0.1144 	   20.6013 	    4.0000 	   35.0000 	   12.6083
    0.3281 	   20.6788 	    4.0000 	   35.0000 	   12.9183
    0.3128 	   20.7573 	    4.0000 	   35.0000 	   13.2323
    0.2976 	   20.8358 	    4.0000 	   35.0000 	   13.5463
    0.4196 	   20.9155 	    4.0000 	   35.0000 	   13.8653
    0.2823 	   20.9920 	    4.0000 	   35.0000 	   14.1713
    0.3891 	   21.0740 	    4.0000 	   35.0000 	   14.4994
    0.3891 	   21.1513 	    4.0000 	   35.0000 	   14.8084
    0.2518 	   21.2245 	    4.0000 	   35.0000 	   15.1014
    0.2823 	   21.3050 	    4.0000 	   35.0000 	   15.4234
    0.4807 	   21.3870 	    4.0000 	   35.0000 	   15.7514
    0.2976 	   21.4630 	    4.0000 	   35.0000 	   16.0555
    0.3586 	   21.5455 	    4.0000 	   35.0000 	   16.3855
    0.0534 	   21.6258 	    4.0000 	   35.0000 	   16.7065
    0.2518 	   21.7025 	    4.0000 	   35.0000 	   17.0135
    0.0229 	   21.7780 	    4.0000 	   35.0000 	   17.3155
    0.2060 	   21.8580 	    4.0000 	   35.0000 	   17.6355
    0.2060 	   21.9333 	    4.0000 	   35.0000 	   17.9366
    0.2670 	   22.0065 	    4.0000 	   35.0000 	   18.2296
    0.2976 	   22.0813 	    4.0000 	   35.0000 	   18.5286
    0.4654 	   22.1580 	    4.0000 	   35.0000 	   18.8356
    0.2518 	   22.2333 	    4.0000 	   35.0000 	   19.1366
    0.2976 	   22.3075 	    4.0000 	   35.0000 	   19.4336
    0.3738 	   22.3838 	    4.0000 	   35.0000 	   19.7387
    0.4044 	   22.4585 	    4.0000 	   35.0000 	   20.0377
    0.2365 	   22.5373 	    4.0000 	   35.0000 	   20.3527
    0.3281 	   22.6195 	    4.0000 	   35.0000 	   20.6817
    0.2670 	   22.6978 	    4.0000 	   35.0000 	   20.9947
    0.2976 	   22.7753 	    4.0000 	   35.0000 	   21.3048
    0.4196 	   22.8520 	    4.0000 	   35.0000 	   21.6118
    0.3281 	   22.9275 	    4.0000 	   35.0000 	   21.9138
    0.2213 	   23.0043 	    4.0000 	   35.0000 	   22.2208
    0.5112 	   23.0858 	    4.0000 	   35.0000 	   22.5468
    0.1755 	   23.1658 	    4.0000 	   35.0000 	   22.8668
    0.2365 	   23.2428 	    4.0000 	   35.0000 	   23.1749
    0.3128 	   23.3245 	    4.0000 	   35.0000 	   23.5019
    0.5112 	   23.4075 	    4.0000 	   35.0000 	   23.8329
    0.3891 	   23.4848 	    4.0000 	   35.0000 	   24.1419
    0.3433 	   23.5703 	    4.0000 	   35.0000 	   24.4839
    0.3281 	   23.6530 	    4.0000 	   35.0000 	   24.8150
    0.2976 	   23.7305 	    4.0000 	   35.0000 	   25.1250
    0.3281 	   23.8118 	    4.0000 	   35.0000 	   25.4500
    0.2823 	   23.8895 	    4.0000 	   35.0000 	   25.7610
    0.3586 	   23.9688 	    4.0000 	   35.0000 	   26.0780
    0.2060 	   24.0485 	    4.0000 	   35.0000 	   26.3970
    0.4654 	   24.1255 	    4.0000 	   35.0000 	   26.7051
    0.4654 	   24.2028 	    4.0000 	   35.0000 	   27.0141
    0.4807 	   24.2823 	    4.0000 	   35.0000 	   27.3321
    0.2823 	   24.3623 	    4.0000 	   35.0000 	   27.6521
    0.3891 	   24.4408 	    4.0000 	   35.0000 	   27.9661
    0.1755 	   24.5200 	    4.0000 	   35.0000 	   28.2832
    0.4501 	   24.6008 	    4.0000 	   35.0000 	   28.6062
    0.4196 	   24.6790 	    4.0000 	   35.0000 	   28.9192
    0.2670 	   24.7600 	    4.0000 	   35.0000 	   29.2432
    0.4501 	   24.8393 	    4.0000 	   35.0000 	   29.5602
    0.4959 	   24.9170 	    4.0000 	   35.0000 	   29.8712
    0.3128 	   24.9960 	    4.0000 	   35.0000 	   30.1873
    0.4196 	   25.0783 	    4.0000 	   35.0000 	   30.5163
    0.5875 	   25.1570 	    4.0000 	   35.0000 	   30.8313
    0.2823 	   25.2360 	    4.0000 	   35.0000 	   31.1473
    0.2976 	   25.3208 	    4.0000 	   35.0000 	   31.4863
    0.2060 	   25.3998 	    4.0000 	   35.0000 	   31.8024
    0.2670 	   25.4793 	    4.0000 	   35.0000 	   32.1204
    0.2823 	   25.5618 	    4.0000 	   35.0000 	   32.4504
    0.3586 	   25.6408 	    4.0000 	   35.0000 	   32.7664
    0.3738 	   25.7193 	    4.0000 	   35.0000 	   33.0804
    0.2823 	   25.8045 	    4.0000 	   35.0000 	   33.4214
    0.4654 	   25.8883 	    4.0000 	   35.0000 	   33.7565
    0.3128 	   25.9690 	    4.0000 	   35.0000 	   34.0795
    0.4807 	   26.0515 	    4.0000 	   35.0000 	   34.4095
    0.3433 	   26.1310 	    4.0000 	   35.0000 	   34.7275
    0.2976 	   26.2130 	    4.0000 	   35.0000 	   35.0555
    0.4044 	   26.2958 	    4.0000 	   35.0000 	   35.3866
    0.4044 	   26.3783 	    4.0000 	   35.0000 	   35.7166
    0.3128 	   26.4593 	    4.0000 	   35.0000 	   36.0406
    0.2976 	   26.5410 	    4.0000 	   35.0000 	   36.3676
    0.5112 	   26.6205 	    4.0000 	   35.0000 	   36.6856
    0.3891 	   26.7015 	    4.0000 	   35.0000 	   37.0097
    0.3433 	   26.7795 	    4.0000 	   35.0000 	   37.3217
    0.4807 	   26.8583 	    4.0000 	   35.0000 	   37.6367
    0.3433 	   26.9388 	    4.0000 	   35.0000 	   37.9587
    0.4196 	   27.0205 	    4.0000 	   35.0000 	   38.2857
    0.1450 	   27.1020 	    4.0000 	   35.0000 	   38.6117
    0.2976 	   27.1843 	    4.0000 	   35.0000 	   38.9408
    0.3586 	   27.2648 	    4.0000 	   35.0000 	   39.2628
    0.3738 	   27.3483 	    4.0000 	   35.0000 	   39.5968
    0.3738 	   27.4330 	    4.0000 	   35.0000 	   39.9358
    0.4196 	   27.5145 	    4.0000 	   35.0000 	   40.2618
    0.3433 	   27.5968 	    4.0000 	   35.0000 	   40.5909
    0.2976 	   27.6775 	    4.0000 	   35.0000 	   40.9139
    0.3281 	   27.7585 	    4.0000 	   35.0000 	   41.2369
    0.4501 	   27.8393 	    4.0000 	   35.0000 	   41.5599
    0.3128 	   27.9200 	    4.0000 	   35.0000 	   41.8829
    0.4807 	   28.0015 	    4.0000 	   35.0000 	   42.2090
    0.4959 	   28.0878 	    4.0000 	   35.0000 	   42.5540
    0.3281 	   28.1738 	    4.0000 	   35.0000 	   42.8980
    0.3738 	   28.2555 	    4.0000 	   35.0000 	   43.2250
    0.3738 	   28.3360 	    4.0000 	   35.0000 	   43.5470
    0.3891 	   28.4173 	    4.0000 	   35.0000 	   43.8720
    0.2976 	   28.4988 	    4.0000 	   35.0000 	   44.1981
    0.4501 	   28.5885 	    4.0000 	   35.0000 	   44.5571
    0.4349 	   28.6743 	    4.0000 	   35.0000 	   44.9001
    0.3281 	   28.7583 	    4.0000 	   35.0000 	   45.2361
    0.3586 	   28.8445 	    4.0000 	   35.0000 	   45.5811
    0.5417 	   28.9255 	    4.0000 	   35.0000 	   45.9052
    0.2976 	   29.0078 	    4.0000 	   35.0000 	   46.2342
    0.3433 	   29.0973 	    4.0000 	   35.0000 	   46.5922
    0.2670 	   29.1835 	    4.0000 	   35.0000 	   46.9372
    0.2518 	   29.2685 	    4.0000 	   35.0000 	   47.2772
    0.4654 	   29.3558 	    4.0000 	   35.0000 	   47.6263
    0.4196 	   29.4440 	    4.0000 	   35.0000 	   47.9793
    0.1450 	   29.5278 	    4.0000 	   35.0000 	   48.3143
    0.5417 	   29.6098 	    4.0000 	   35.0000 	   48.6423
    0.3433 	   29.6953 	    4.0000 	   35.0000 	   48.9843
    0.3281 	   29.7805 	    4.0000 	   35.0000 	   49.3254
    0.3738 	   29.8658 	    4.0000 	   35.0000 	   49.6664
    0.2976 	   29.9515 	    4.0000 	   35.0000 	   50.0094
    0.4044 	   30.0365 	    4.0000 	   35.0000 	   50.3494
    0.3281 	   30.1213 	    4.0000 	   35.0000 	   50.6884
    0.1144 	   30.2063 	    4.0000 	   35.0000 	   51.0285
    0.2976 	   30.2890 	    4.0000 	   35.0000 	   51.3595
    0.5112 	   30.3740 	    4.0000 	   35.0000 	   51.6995
    0.4196 	   30.4590 	    4.0000 	   35.0000 	   52.0395
    0.3281 	   30.5418 	    4.0000 	   35.0000 	   52.3705
    0.3738 	   30.6273 	    4.0000 	   35.0000 	   52.7126
    0.1144 	   30.7135 	    4.0000 	   35.0000 	   53.0576
    0.3891 	   30.7965 	    4.0000 	   35.0000 	   53.3896
    0.5112 	   30.8828 	    4.0000 	   35.0000 	   53.7346
    0.2976 	   30.9718 	    4.0000 	   35.0000 	   54.0906
    0.2976 	   31.0548 	    4.0000 	   35.0000 	   54.4226
    0.4654 	   31.1415 	    4.0000 	   35.0000 	   54.7697
    0.1755 	   31.2293 	    4.0000 	   35.0000 	   55.1207
    0.3281 	   31.3123 	    4.0000 	   35.0000 	   55.4527
    0.4807 	   31.3955 	    4.0000 	   35.0000 	   55.7857
    0.4501 	   31.4828 	    4.0000 	   35.0000 	   56.1347
    0.4196 	   31.5690 	    4.0000 	   35.0000 	   56.4798
    0.3738 	   31.6595 	    4.0000 	   35.0000 	   56.8418
    0.4044 	   31.7458 	    4.0000 	   35.0000 	   57.1868
    0.3738 	   31.8293 	    4.0000 	   35.0000 	   57.5208
    0.3586 	   31.9160 	    4.0000 	   35.0000 	   57.8678
    0.3128 	   32.0010 	    4.0000 	   35.0000 	   58.2079
    0.1450 	   32.0865 	    4.0000 	   35.0000 	   58.5499
    0.2213 	   32.1730 	    4.0000 	   35.0000 	   58.8949
    0.4044 	   32.2598 	    4.0000 	   35.0000 	   59.2419
    0.3738 	   32.3442 	    4.0000 	   35.0000 	   59.5799
    0.4349 	   32.4340 	    4.0000 	   35.0000 	   59.9390
    0.3891 	   32.5190 	    4.0000 	   36.0000 	    0.2790
    0.3738 	   32.6020 	    4.0000 	   36.0000 	    0.6110
    0.2670 	   32.6925 	    4.0000 	   36.0000 	    0.9730
    0.3433 	   32.7793 	    4.0000 	   36.0000 	    1.3200
    0.4654 	   32.8647 	    4.0000 	   36.0000 	    1.6621
    0.2670 	   32.9510 	    4.0000 	   36.0000 	    2.0071
    0.3281 	   33.0370 	    4.0000 	   36.0000 	    2.3511
    0.3891 	   33.1213 	    4.0000 	   36.0000 	    2.6881
    0.3128 	   33.2080 	    4.0000 	   36.0000 	    3.0351
   -0.0229 	   33.2938 	    4.0000 	   36.0000 	    3.3782
    0.1297 	   33.3787 	    4.0000 	   36.0000 	    3.7182
    0.3281 	   33.4643 	    4.0000 	   36.0000 	    4.0602
    0.2823 	   33.5538 	    4.0000 	   36.0000 	    4.4182
    0.3586 	   33.6450 	    4.0000 	   36.0000 	    4.7832
    0.2518 	   33.7335 	    4.0000 	   36.0000 	    5.1373
    0.3281 	   33.8210 	    4.0000 	   36.0000 	    5.4873
    0.4196 	   33.9088 	    4.0000 	   36.0000 	    5.8383
    0.3281 	   33.9953 	    4.0000 	   36.0000 	    6.1843
    0.4196 	   34.0863 	    4.0000 	   36.0000 	    6.5483
    0.1755 	   34.1772 	    4.0000 	   36.0000 	    6.9124
    0.4349 	   34.2660 	    4.0000 	   36.0000 	    7.2674
    0.4349 	   34.3545 	    4.0000 	   36.0000 	    7.6214
    0.2976 	   34.4478 	    4.0000 	   36.0000 	    7.9944
    0.2518 	   34.5375 	    4.0000 	   36.0000 	    8.3534
    0.4196 	   34.6275 	    4.0000 	   36.0000 	    8.7135
    0.4501 	   34.7215 	    4.0000 	   36.0000 	    9.0895
    0.3586 	   34.8098 	    4.0000 	   36.0000 	    9.4425
    0.3281 	   34.8995 	    4.0000 	   36.0000 	    9.8015
    0.0381 	   34.9890 	    4.0000 	   36.0000 	   10.1595
    0.3281 	   35.0800 	    4.0000 	   36.0000 	   10.5236
    0.3891 	   35.1743 	    4.0000 	   36.0000 	   10.9006
    0.2060 	   35.2655 	    4.0000 	   36.0000 	   11.2656
    0.1755 	   35.3543 	    4.0000 	   36.0000 	   11.6206
    0.2976 	   35.4478 	    4.0000 	   36.0000 	   11.9947
    0.4044 	   35.5375 	    4.0000 	   36.0000 	   12.3537
    0.3433 	   35.6263 	    4.0000 	   36.0000 	   12.7087
    0.3738 	   35.7143 	    4.0000 	   36.0000 	   13.0607
    0.2518 	   35.8015 	    4.0000 	   36.0000 	   13.4097
    0.3433 	   35.8918 	    4.0000 	   36.0000 	   13.7708
    0.3128 	   35.9818 	    4.0000 	   36.0000 	   14.1308
    0.2670 	   36.0710 	    4.0000 	   36.0000 	   14.4878
    0.2670 	   36.1650 	    4.0000 	   36.0000 	   14.8638
    0.1755 	   36.2570 	    4.0000 	   36.0000 	   15.2318
    0.3738 	   36.3465 	    4.0000 	   36.0000 	   15.5899
    0.4501 	   36.4353 	    4.0000 	   36.0000 	   15.9449
    0.2670 	   36.5228 	    4.0000 	   36.0000 	   16.2939
    0.2365 	   36.6110 	    4.0000 	   36.0000 	   16.6469
    0.3586 	   36.7020 	    4.0000 	   36.0000 	   17.0109
    0.2670 	   36.7910 	    4.0000 	   36.0000 	   17.3670
    0.2976 	   36.8815 	    4.0000 	   36.0000 	   17.7290
    0.3433 	   36.9723 	    4.0000 	   36.0000 	   18.0920
    0.2518 	   37.0635 	    4.0000 	   36.0000 	   18.4570
    0.2060 	   37.1562 	    4.0000 	   36.0000 	   18.8280
    0.2976 	   37.2490 	    4.0000 	   36.0000 	   19.1991
    0.2518 	   37.3405 	    4.0000 	   36.0000 	   19.5651
    0.1907 	   37.4333 	    4.0000 	   36.0000 	   19.9361
    0.3281 	   37.5255 	    4.0000 	   36.0000 	   20.3051
    0.2213 	   37.6150 	    4.0000 	   36.0000 	   20.6631
    0.4044 	   37.7063 	    4.0000 	   36.0000 	   21.0282
    0.3433 	   37.7963 	    4.0000 	   36.0000 	   21.3882
    0.4959 	   37.8875 	    4.0000 	   36.0000 	   21.7532
    0.0839 	   37.9798 	    4.0000 	   36.0000 	   22.1222
    0.2823 	   38.0720 	    4.0000 	   36.0000 	   22.4913
    0.4196 	   38.1648 	    4.0000 	   36.0000 	   22.8623
    0.2976 	   38.2563 	    4.0000 	   36.0000 	   23.2283
    0.3433 	   38.3480 	    4.0000 	   36.0000 	   23.5953
    0.2213 	   38.4400 	    4.0000 	   36.0000 	   23.9633
    0.3128 	   38.5305 	    4.0000 	   36.0000 	   24.3254
    0.1907 	   38.6253 	    4.0000 	   36.0000 	   24.7044
    0.2213 	   38.7210 	    4.0000 	   36.0000 	   25.0874
    0.3128 	   38.8125 	    4.0000 	   36.0000 	   25.4534
    0.2976 	   38.9045 	    4.0000 	   36.0000 	   25.8214
    0.0687 	   39.0010 	    4.0000 	   36.0000 	   26.2075
    0.2213 	   39.0923 	    4.0000 	   36.0000 	   26.5725
    0.3738 	   39.1865 	    4.0000 	   36.0000 	   26.9495
    0.2823 	   39.2793 	    4.0000 	   36.0000 	   27.3205
    0.2213 	   39.3740 	    4.0000 	   36.0000 	   27.6996
    0.2518 	   39.4683 	    4.0000 	   36.0000 	   28.0766
    0.2976 	   39.5610 	    4.0000 	   36.0000 	   28.4476
   -0.0381 	   39.6525 	    4.0000 	   36.0000 	   28.8136
    0.3433 	   39.7448 	    4.0000 	   36.0000 	   29.1826
    0.2518 	   39.8358 	    4.0000 	   36.0000 	   29.5467
    0.2213 	   39.9288 	    4.0000 	   36.0000 	   29.9187
    0.2060 	   40.0215 	    4.0000 	   36.0000 	   30.2897
    0.3738 	   40.1148 	    4.0000 	   36.0000 	   30.6627
    0.1755 	   40.2075 	    4.0000 	   36.0000 	   31.0337
    0.1755 	   40.2988 	    4.0000 	   36.0000 	   31.3988
    0.2365 	   40.3920 	    4.0000 	   36.0000 	   31.7718
    0.3586 	   40.4913 	    4.0000 	   36.0000 	   32.1688
    0.3738 	   40.5828 	    4.0000 	   36.0000 	   32.5348
    0.3738 	   40.6803 	    4.0000 	   36.0000 	   32.9249
    0.4196 	   40.7730 	    4.0000 	   36.0000 	   33.2959
    0.2365 	   40.8690 	    4.0000 	   36.0000 	   33.6789
    0.1602 	   40.9678 	    4.0000 	   36.0000 	   34.0739
    0.2823 	   41.0625 	    4.0000 	   36.0000 	   34.4529
    0.2213 	   41.1588 	    4.0000 	   36.0000 	   34.8380
    0.1755 	   41.2518 	    4.0000 	   36.0000 	   35.2100
    0.1450 	   41.3430 	    4.0000 	   36.0000 	   35.5750
    0.0992 	   41.4375 	    4.0000 	   36.0000 	   35.9530
    0.3586 	   41.5308 	    4.0000 	   36.0000 	   36.3260
    0.3891 	   41.6228 	    4.0000 	   36.0000 	   36.6941
   -0.0076 	   41.7210 	    4.0000 	   36.0000 	   37.0871
    0.3891 	   41.8153 	    4.0000 	   36.0000 	   37.4641
    0.3738 	   41.9108 	    4.0000 	   36.0000 	   37.8461
    0.3891 	   42.0058 	    4.0000 	   36.0000 	   38.2262
    0.1907 	   42.1028 	    4.0000 	   36.0000 	   38.6142
    0.2670 	   42.1970 	    4.0000 	   36.0000 	   38.9912
    0.2823 	   42.2920 	    4.0000 	   36.0000 	   39.3712
    0.2213 	   42.3853 	    4.0000 	   36.0000 	   39.7442
    0.2060 	   42.4773 	    4.0000 	   36.0000 	   40.1123
    0.1602 	   42.5713 	    4.0000 	   36.0000 	   40.4883
    0.2060 	   42.6695 	    4.0000 	   36.0000 	   40.8813
    0.1755 	   42.7638 	    4.0000 	   36.0000 	   41.2583
    0.4959 	   42.8608 	    4.0000 	   36.0000 	   41.6463
    0.3738 	   42.9595 	    4.0000 	   36.0000 	   42.0414
    0.2060 	   43.0570 	    4.0000 	   36.0000 	   42.4314
    0.2518 	   43.1515 	    4.0000 	   36.0000 	   42.8094
    0.2976 	   43.2440 	    4.0000 	   36.0000 	   43.1794
    0.3128 	   43.3395 	    4.0000 	   36.0000 	   43.5615
    0.2976 	   43.4345 	    4.0000 	   36.0000 	   43.9415
    0.2670 	   43.5293 	    4.0000 	   36.0000 	   44.3205
    0.3281 	   43.6243 	    4.0000 	   36.0000 	   44.7005
    0.2670 	   43.7200 	    4.0000 	   36.0000 	   45.0835
    0.3281 	   43.8158 	    4.0000 	   36.0000 	   45.4666
    0.3433 	   43.9110 	    4.0000 	   36.0000 	   45.8476
    0.3128 	   44.0075 	    4.0000 	   36.0000 	   46.2336
    0.2670 	   44.1060 	    4.0000 	   36.0000 	   46.6276
    0.3128 	   44.2030 	    4.0000 	   36.0000 	   47.0157
    0.3433 	   44.2988 	    4.0000 	   36.0000 	   47.3987
    0.2365 	   44.4010 	    4.0000 	   36.0000 	   47.8077
    0.2518 	   44.4998 	    4.0000 	   36.0000 	   48.2027
    0.3433 	   44.5948 	    4.0000 	   36.0000 	   48.5827
    0.3281 	   44.6910 	    4.0000 	   36.0000 	   48.9678
    0.1755 	   44.7873 	    4.0000 	   36.0000 	   49.3528
    0.0076 	   44.8840 	    4.0000 	   36.0000 	   49.7398
    0.3128 	   44.9798 	    4.0000 	   36.0000 	   50.1228
    0.3281 	   45.0780 	    4.0000 	   36.0000 	   50.5159
    0.2365 	   45.1733 	    4.0000 	   36.0000 	   50.8969
    0.1907 	   45.2725 	    4.0000 	   36.0000 	   51.2929
    0.1907 	   45.3658 	    4.0000 	   36.0000 	   51.6659
    0.1602 	   45.4625 	    4.0000 	   36.0000 	   52.0529
    0.2365 	   45.5608 	    4.0000 	   36.0000 	   52.4460
    0.3128 	   45.6553 	    4.0000 	   36.0000 	   52.8240
    0.2518 	   45.7518 	    4.0000 	   36.0000 	   53.2100
    0.3738 	   45.8473 	    4.0000 	   36.0000 	   53.5920
    0.2518 	   45.9438 	    4.0000 	   36.0000 	   53.9781
    0.2060 	   46.0425 	    4.0000 	   36.0000 	   54.3731
    0.3128 	   46.1380 	    4.0000 	   36.0000 	   54.7551
    0.2213 	   46.2353 	    4.0000 	   36.0000 	   55.1441
    0.3433 	   46.3335 	    4.0000 	   36.0000 	   55.5371
    0.2823 	   46.4315 	    4.0000 	   36.0000 	   55.9292
   -0.0534 	   46.5328 	    4.0000 	   36.0000 	   56.3342
    0.2518 	   46.6298 	    4.0000 	   36.0000 	   56.7222
    0.2518 	   46.7253 	    4.0000 	   36.0000 	   57.1042
    0.1907 	   46.8215 	    4.0000 	   36.0000 	   57.4893
    0.2976 	   46.9190 	    4.0000 	   36.0000 	   57.8793
    0.3281 	   47.0170 	    4.0000 	   36.0000 	   58.2713
    0.2213 	   47.1168 	    4.0000 	   36.0000 	   58.6703
    0.2365 	   47.2145 	    4.0000 	   36.0000 	   59.0613
    0.2823 	   47.3128 	    4.0000 	   36.0000 	   59.4544
    0.2365 	   47.4103 	    4.0000 	   36.0000 	   59.8444
    0.2060 	   47.5098 	    4.0000 	   37.0000 	    0.2424
    0.2365 	   47.6088 	    4.0000 	   37.0000 	    0.6384
    0.2823 	   47.7088 	    4.0000 	   37.0000 	    1.0385
    0.2060 	   47.8073 	    4.0000 	   37.0000 	    1.4325
    0.2365 	   47.9065 	    4.0000 	   37.0000 	    1.8295
    0.2823 	   48.0048 	    4.0000 	   37.0000 	    2.2225
    0.3738 	   48.1065 	    4.0000 	   37.0000 	    2.6295
    0.0839 	   48.2075 	    4.0000 	   37.0000 	    3.0336
    0.2976 	   48.3058 	    4.0000 	   37.0000 	    3.4256
    0.2365 	   48.4050 	    4.0000 	   37.0000 	    3.8236
    0.1755 	   48.5048 	    4.0000 	   37.0000 	    4.2226
    0.4044 	   48.6058 	    4.0000 	   37.0000 	    4.6267
    0.2060 	   48.7043 	    4.0000 	   37.0000 	    5.0207
    0.2060 	   48.8050 	    4.0000 	   37.0000 	    5.4227
    0.3128 	   48.9070 	    4.0000 	   37.0000 	    5.8317
    0.2823 	   49.0098 	    4.0000 	   37.0000 	    6.2428
    0.4501 	   49.1110 	    4.0000 	   37.0000 	    6.6478
    0.3281 	   49.2103 	    4.0000 	   37.0000 	    7.0448
    0.2213 	   49.3095 	    4.0000 	   37.0000 	    7.4418
    0.2518 	   49.4093 	    4.0000 	   37.0000 	    7.8408
    0.1144 	   49.5140 	    4.0000 	   37.0000 	    8.2599
    0.1602 	   49.6135 	    4.0000 	   37.0000 	    8.6569
    0.1297 	   49.7125 	    4.0000 	   37.0000 	    9.0529
    0.2365 	   49.8123 	    4.0000 	   37.0000 	    9.4519
    0.3281 	   49.9133 	    4.0000 	   37.0000 	    9.8560
    0.2823 	   50.0185 	    4.0000 	   37.0000 	   10.2770
    0.2976 	   50.1190 	    4.0000 	   37.0000 	   10.6790
    0.1755 	   50.2193 	    4.0000 	   37.0000 	   11.0800
    0.3738 	   50.3190 	    4.0000 	   37.0000 	   11.4791
    0.1907 	   50.4188 	    4.0000 	   37.0000 	   11.8781
    0.3891 	   50.5230 	    4.0000 	   37.0000 	   12.2951
    0.2365 	   50.6243 	    4.0000 	   37.0000 	   12.7001
    0.2365 	   50.7228 	    4.0000 	   37.0000 	   13.0941
    0.1602 	   50.8223 	    4.0000 	   37.0000 	   13.4922
    0.1907 	   50.9225 	    4.0000 	   37.0000 	   13.8932
    0.3128 	   51.0280 	    4.0000 	   37.0000 	   14.3152
    0.3433 	   51.1295 	    4.0000 	   37.0000 	   14.7212
    0.3281 	   51.2285 	    4.0000 	   37.0000 	   15.1173
    0.4196 	   51.3278 	    4.0000 	   37.0000 	   15.5143
    0.1450 	   51.4315 	    4.0000 	   37.0000 	   15.9293
    0.2365 	   51.5380 	    4.0000 	   37.0000 	   16.3553
    0.4196 	   51.6360 	    4.0000 	   37.0000 	   16.7474
    0.1450 	   51.7405 	    4.0000 	   37.0000 	   17.1654
    0.2060 	   51.8440 	    4.0000 	   37.0000 	   17.5794
    0.3433 	   51.9468 	    4.0000 	   37.0000 	   17.9904
    0.2060 	   52.0503 	    4.0000 	   37.0000 	   18.4045
    0.0992 	   52.1505 	    4.0000 	   37.0000 	   18.8055
    0.2060 	   52.2510 	    4.0000 	   37.0000 	   19.2075
    0.0381 	   52.3535 	    4.0000 	   37.0000 	   19.6175
    0.1602 	   52.4575 	    4.0000 	   37.0000 	   20.0335
    0.0381 	   52.5595 	    4.0000 	   37.0000 	   20.4416
    0.1907 	   52.6620 	    4.0000 	   37.0000 	   20.8516
    0.2518 	   52.7630 	    4.0000 	   37.0000 	   21.2556
    0.1907 	   52.8665 	    4.0000 	   37.0000 	   21.6696
    0.2670 	   52.9670 	    4.0000 	   37.0000 	   22.0717
    0.2213 	   53.0693 	    4.0000 	   37.0000 	   22.4807
    0.3738 	   53.1703 	    4.0000 	   37.0000 	   22.8847
    0.3586 	   53.2708 	    4.0000 	   37.0000 	   23.2867
    0.1907 	   53.3723 	    4.0000 	   37.0000 	   23.6928
    0.2823 	   53.4743 	    4.0000 	   37.0000 	   24.1008
    0.2976 	   53.5760 	    4.0000 	   37.0000 	   24.5078
    0.2060 	   53.6765 	    4.0000 	   37.0000 	   24.9098
    0.2670 	   53.7775 	    4.0000 	   37.0000 	   25.3138
    0.1907 	   53.8823 	    4.0000 	   37.0000 	   25.7329
    0.2213 	   53.9858 	    4.0000 	   37.0000 	   26.1459
   -0.1450 	   54.0893 	    4.0000 	   37.0000 	   26.5599
    0.3281 	   54.1895 	    4.0000 	   37.0000 	   26.9609
    0.3281 	   54.2968 	    4.0000 	   37.0000 	   27.3900
    0.1602 	   54.3988 	    4.0000 	   37.0000 	   27.7980
    0.1755 	   54.5008 	    4.0000 	   37.0000 	   28.2060
    0.1602 	   54.6053 	    4.0000 	   37.0000 	   28.6240
    0.2518 	   54.7138 	    4.0000 	   37.0000 	   29.0581
    0.1144 	   54.8215 	    4.0000 	   37.0000 	   29.4891
    0.1907 	   54.9243 	    4.0000 	   37.0000 	   29.9001
    0.2670 	   55.0298 	    4.0000 	   37.0000 	   30.3221
    0.1450 	   55.1323 	    4.0000 	   37.0000 	   30.7322
    0.2518 	   55.2355 	    4.0000 	   37.0000 	   31.1452
    0.1907 	   55.3393 	    4.0000 	   37.0000 	   31.5602
    0.2976 	   55.4403 	    4.0000 	   37.0000 	   31.9642
    0.2213 	   55.5463 	    4.0000 	   37.0000 	   32.3883
    0.1602 	   55.6493 	    4.0000 	   37.0000 	   32.8003
    0.0229 	   55.7565 	    4.0000 	   37.0000 	   33.2293
    0.3433 	   55.8598 	    4.0000 	   37.0000 	   33.6423
    0.1907 	   55.9650 	    4.0000 	   37.0000 	   34.0633
    0.1755 	   56.0693 	    4.0000 	   37.0000 	   34.4804
    0.3433 	   56.1720 	    4.0000 	   37.0000 	   34.8914
    0.3281 	   56.2758 	    4.0000 	   37.0000 	   35.3064
    0.2213 	   56.3813 	    4.0000 	   37.0000 	   35.7284
    0.1297 	   56.4868 	    4.0000 	   37.0000 	   36.1505
    0.3128 	   56.5973 	    4.0000 	   37.0000 	   36.5925
    0.2670 	   56.7018 	    4.0000 	   37.0000 	   37.0105
    0.2213 	   56.8063 	    4.0000 	   37.0000 	   37.4285
    0.2365 	   56.9120 	    4.0000 	   37.0000 	   37.8516
    0.1755 	   57.0175 	    4.0000 	   37.0000 	   38.2736
    0.1602 	   57.1233 	    4.0000 	   37.0000 	   38.6966
    0.1297 	   57.2293 	    4.0000 	   37.0000 	   39.1206
    0.1602 	   57.3333 	    4.0000 	   37.0000 	   39.5367
    0.2518 	   57.4385 	    4.0000 	   37.0000 	   39.9577
    0.1297 	   57.5433 	    4.0000 	   37.0000 	   40.3767
    0.3281 	   57.6505 	    4.0000 	   37.0000 	   40.8057
    0.2213 	   57.7588 	    4.0000 	   37.0000 	   41.2388
    0.1450 	   57.8693 	    4.0000 	   37.0000 	   41.6808
    0.0992 	   57.9750 	    4.0000 	   37.0000 	   42.1038
    0.2213 	   58.0825 	    4.0000 	   37.0000 	   42.5338
    0.1755 	   58.1873 	    4.0000 	   37.0000 	   42.9529
    0.2060 	   58.2920 	    4.0000 	   37.0000 	   43.3719
    0.2976 	   58.3995 	    4.0000 	   37.0000 	   43.8009
    0.0534 	   58.5053 	    4.0000 	   37.0000 	   44.2239
    0.2365 	   58.6120 	    4.0000 	   37.0000 	   44.6510
    0.0839 	   58.7170 	    4.0000 	   37.0000 	   45.0710
    0.2823 	   58.8238 	    4.0000 	   37.0000 	   45.4980
    0.3128 	   58.9338 	    4.0000 	   37.0000 	   45.9380
    0.2365 	   59.0415 	    4.0000 	   37.0000 	   46.3690
    0.1602 	   59.1488 	    4.0000 	   37.0000 	   46.7981
    0.3128 	   59.2558 	    4.0000 	   37.0000 	   47.2261
    0.3738 	   59.3638 	    4.0000 	   37.0000 	   47.6581
    0.1297 	   59.4698 	    4.0000 	   37.0000 	   48.0821
    0.2213 	   59.5775 	    4.0000 	   37.0000 	   48.5132
    0.1297 	   59.6860 	    4.0000 	   37.0000 	   48.9472
    0.2365 	   59.7940 	    4.0000 	   37.0000 	   49.3792
    0.3128 	   59.9035 	    4.0000 	   37.0000 	   49.8172
    0.1755 	   60.0075 	    4.0000 	   37.0000 	   50.2333
    0.1907 	   60.0383 	    4.0000 	   37.0000 	   50.3563