File: instron/med_3W15L_drag30_spd15.txt
Thayer School of Engineering        Instron 4442 Mechanical Testing System
6/28/2018 5:02:13 AM

  Force (N)	Extension (mm)	Not Used	Not Used	Not Used	     Hour	    Minute	    Second
    0.2213 	    0.2560 	    5.0000 	    2.0000 	   39.5405
    0.2823 	    0.3388 	    5.0000 	    2.0000 	   39.8715
    0.1755 	    0.4160 	    5.0000 	    2.0000 	   40.1805
    0.1297 	    0.5045 	    5.0000 	    2.0000 	   40.5345
    0.2518 	    0.5935 	    5.0000 	    2.0000 	   40.8905
    0.1602 	    0.6748 	    5.0000 	    2.0000 	   41.2156
    0.3891 	    0.7620 	    5.0000 	    2.0000 	   41.5646
    0.1755 	    0.8340 	    5.0000 	    2.0000 	   41.8526
    0.2060 	    0.8848 	    5.0000 	    2.0000 	   42.0556
    0.2213 	    0.9505 	    5.0000 	    2.0000 	   42.3186
    0.1755 	    1.0078 	    5.0000 	    2.0000 	   42.5476
    0.3128 	    1.0605 	    5.0000 	    2.0000 	   42.7586
    0.1755 	    1.1093 	    5.0000 	    2.0000 	   42.9537
    0.2976 	    1.1655 	    5.0000 	    2.0000 	   43.1787
    0.2365 	    1.2233 	    5.0000 	    2.0000 	   43.4097
    0.2213 	    1.2808 	    5.0000 	    2.0000 	   43.6397
    0.1907 	    1.3313 	    5.0000 	    2.0000 	   43.8417
    0.3281 	    1.3793 	    5.0000 	    2.0000 	   44.0337
    0.2060 	    1.4348 	    5.0000 	    2.0000 	   44.2557
    0.1450 	    1.4905 	    5.0000 	    2.0000 	   44.4787
    0.3738 	    1.5453 	    5.0000 	    2.0000 	   44.6978
    0.2213 	    1.5965 	    5.0000 	    2.0000 	   44.9028
    0.0839 	    1.6460 	    5.0000 	    2.0000 	   45.1008
    0.1297 	    1.7030 	    5.0000 	    2.0000 	   45.3288
    0.1755 	    1.7583 	    5.0000 	    2.0000 	   45.5498
    0.3281 	    1.8120 	    5.0000 	    2.0000 	   45.7648
    0.2823 	    1.8600 	    5.0000 	    2.0000 	   45.9568
    0.2670 	    1.9143 	    5.0000 	    2.0000 	   46.1738
    0.3586 	    1.9693 	    5.0000 	    2.0000 	   46.3938
    0.3433 	    2.0230 	    5.0000 	    2.0000 	   46.6089
    0.2670 	    2.0760 	    5.0000 	    2.0000 	   46.8209
    0.3433 	    2.1248 	    5.0000 	    2.0000 	   47.0159
    0.2670 	    2.1795 	    5.0000 	    2.0000 	   47.2349
    0.3738 	    2.2343 	    5.0000 	    2.0000 	   47.4539
    0.1602 	    2.2900 	    5.0000 	    2.0000 	   47.6769
    0.2518 	    2.3420 	    5.0000 	    2.0000 	   47.8849
    0.3128 	    2.3940 	    5.0000 	    2.0000 	   48.0929
    0.2976 	    2.4503 	    5.0000 	    2.0000 	   48.3180
    0.4349 	    2.5048 	    5.0000 	    2.0000 	   48.5360
    0.2365 	    2.5600 	    5.0000 	    2.0000 	   48.7570
    0.4044 	    2.6093 	    5.0000 	    2.0000 	   48.9540
    0.3738 	    2.6608 	    5.0000 	    2.0000 	   49.1600
    0.3433 	    2.7200 	    5.0000 	    2.0000 	   49.3970
    0.0534 	    2.7760 	    5.0000 	    2.0000 	   49.6210
    0.1907 	    2.8298 	    5.0000 	    2.0000 	   49.8360
    0.3433 	    2.8780 	    5.0000 	    2.0000 	   50.0291
    0.3128 	    2.9320 	    5.0000 	    2.0000 	   50.2451
    0.4196 	    2.9900 	    5.0000 	    2.0000 	   50.4771
    0.2976 	    3.0440 	    5.0000 	    2.0000 	   50.6931
    0.3891 	    3.0958 	    5.0000 	    2.0000 	   50.9001
    0.2823 	    3.1475 	    5.0000 	    2.0000 	   51.1071
    0.2518 	    3.2038 	    5.0000 	    2.0000 	   51.3321
    0.2365 	    3.2600 	    5.0000 	    2.0000 	   51.5571
    0.3128 	    3.3158 	    5.0000 	    2.0000 	   51.7802
    0.3128 	    3.3643 	    5.0000 	    2.0000 	   51.9742
    0.2213 	    3.4200 	    5.0000 	    2.0000 	   52.1972
    0.3281 	    3.4778 	    5.0000 	    2.0000 	   52.4272
    0.3891 	    3.5335 	    5.0000 	    2.0000 	   52.6502
    0.3433 	    3.5833 	    5.0000 	    2.0000 	   52.8492
    0.3281 	    3.6335 	    5.0000 	    2.0000 	   53.0502
    0.3281 	    3.6865 	    5.0000 	    2.0000 	   53.2622
    0.4196 	    3.7445 	    5.0000 	    2.0000 	   53.4943
    0.4044 	    3.8028 	    5.0000 	    2.0000 	   53.7273
    0.4044 	    3.8570 	    5.0000 	    2.0000 	   53.9443
    0.4196 	    3.9090 	    5.0000 	    2.0000 	   54.1523
    0.1907 	    3.9640 	    5.0000 	    2.0000 	   54.3723
    0.2518 	    4.0223 	    5.0000 	    2.0000 	   54.6053
    0.2976 	    4.0775 	    5.0000 	    2.0000 	   54.8263
    0.3891 	    4.1285 	    5.0000 	    2.0000 	   55.0303
    0.3738 	    4.1815 	    5.0000 	    2.0000 	   55.2424
    0.2518 	    4.2413 	    5.0000 	    2.0000 	   55.4814
    0.4349 	    4.2948 	    5.0000 	    2.0000 	   55.6954
    0.1602 	    4.3480 	    5.0000 	    2.0000 	   55.9084
    0.3128 	    4.3995 	    5.0000 	    2.0000 	   56.1144
    0.2060 	    4.4583 	    5.0000 	    2.0000 	   56.3494
    0.2670 	    4.5138 	    5.0000 	    2.0000 	   56.5714
    0.3586 	    4.5688 	    5.0000 	    2.0000 	   56.7914
    0.3586 	    4.6218 	    5.0000 	    2.0000 	   57.0035
    0.3586 	    4.6780 	    5.0000 	    2.0000 	   57.2285
    0.2670 	    4.7375 	    5.0000 	    2.0000 	   57.4665
    0.3586 	    4.7960 	    5.0000 	    2.0000 	   57.7005
    0.5112 	    4.8523 	    5.0000 	    2.0000 	   57.9255
    0.3128 	    4.9033 	    5.0000 	    2.0000 	   58.1295
    0.3738 	    4.9615 	    5.0000 	    2.0000 	   58.3625
    0.1144 	    5.0215 	    5.0000 	    2.0000 	   58.6025
    0.2670 	    5.0785 	    5.0000 	    2.0000 	   58.8306
    0.2670 	    5.1335 	    5.0000 	    2.0000 	   59.0506
    0.3128 	    5.1923 	    5.0000 	    2.0000 	   59.2856
    0.4044 	    5.2470 	    5.0000 	    2.0000 	   59.5046
    0.3586 	    5.3033 	    5.0000 	    2.0000 	   59.7296
    0.2823 	    5.3575 	    5.0000 	    2.0000 	   59.9466
    0.2823 	    5.4130 	    5.0000 	    3.0000 	    0.1686
    0.4044 	    5.4735 	    5.0000 	    3.0000 	    0.4106
    0.3128 	    5.5320 	    5.0000 	    3.0000 	    0.6447
    0.2518 	    5.5898 	    5.0000 	    3.0000 	    0.8757
    0.3586 	    5.6433 	    5.0000 	    3.0000 	    1.0897
    0.3586 	    5.6955 	    5.0000 	    3.0000 	    1.2987
    0.2976 	    5.7538 	    5.0000 	    3.0000 	    1.5317
    0.3738 	    5.8143 	    5.0000 	    3.0000 	    1.7737
    0.3281 	    5.8698 	    5.0000 	    3.0000 	    1.9957
    0.3128 	    5.9228 	    5.0000 	    3.0000 	    2.2078
    0.4349 	    5.9835 	    5.0000 	    3.0000 	    2.4508
    0.2518 	    6.0458 	    5.0000 	    3.0000 	    2.6998
    0.4196 	    6.1043 	    5.0000 	    3.0000 	    2.9338
    0.1450 	    6.1570 	    5.0000 	    3.0000 	    3.1448
    0.3281 	    6.2185 	    5.0000 	    3.0000 	    3.3908
    0.3891 	    6.2730 	    5.0000 	    3.0000 	    3.6088
    0.3738 	    6.3268 	    5.0000 	    3.0000 	    3.8238
    0.4044 	    6.3805 	    5.0000 	    3.0000 	    4.0389
    0.4044 	    6.4353 	    5.0000 	    3.0000 	    4.2579
    0.3433 	    6.4930 	    5.0000 	    3.0000 	    4.4889
    0.3586 	    6.5550 	    5.0000 	    3.0000 	    4.7359
    0.1297 	    6.6135 	    5.0000 	    3.0000 	    4.9709
    0.2823 	    6.6698 	    5.0000 	    3.0000 	    5.1959
    0.2365 	    6.7310 	    5.0000 	    3.0000 	    5.4409
    0.3891 	    6.7928 	    5.0000 	    3.0000 	    5.6880
    0.5417 	    6.8525 	    5.0000 	    3.0000 	    5.9270
    0.2670 	    6.9080 	    5.0000 	    3.0000 	    6.1490
    0.4349 	    6.9700 	    5.0000 	    3.0000 	    6.3970
    0.2976 	    7.0320 	    5.0000 	    3.0000 	    6.6450
    0.4196 	    7.0935 	    5.0000 	    3.0000 	    6.8910
    0.5570 	    7.1505 	    5.0000 	    3.0000 	    7.1190
    0.5570 	    7.2088 	    5.0000 	    3.0000 	    7.3510
    0.4044 	    7.2725 	    5.0000 	    3.0000 	    7.6071
    0.4044 	    7.3348 	    5.0000 	    3.0000 	    7.8561
    0.3586 	    7.3935 	    5.0000 	    3.0000 	    8.0911
    0.2976 	    7.4535 	    5.0000 	    3.0000 	    8.3311
    0.2976 	    7.5168 	    5.0000 	    3.0000 	    8.5841
    0.3738 	    7.5795 	    5.0000 	    3.0000 	    8.8351
    0.3433 	    7.6390 	    5.0000 	    3.0000 	    9.0731
    0.4044 	    7.6970 	    5.0000 	    3.0000 	    9.3052
    0.4196 	    7.7618 	    5.0000 	    3.0000 	    9.5642
    0.4349 	    7.8243 	    5.0000 	    3.0000 	    9.8132
    0.5112 	    7.8808 	    5.0000 	    3.0000 	   10.0392
    0.3738 	    7.9385 	    5.0000 	    3.0000 	   10.2692
    0.4196 	    8.0010 	    5.0000 	    3.0000 	   10.5202
    0.5112 	    8.0620 	    5.0000 	    3.0000 	   10.7642
    0.2060 	    8.1190 	    5.0000 	    3.0000 	   10.9923
    0.4501 	    8.1755 	    5.0000 	    3.0000 	   11.2183
    0.4501 	    8.2388 	    5.0000 	    3.0000 	   11.4713
    0.3128 	    8.3010 	    5.0000 	    3.0000 	   11.7203
    0.2823 	    8.3633 	    5.0000 	    3.0000 	   11.9693
    0.4501 	    8.4202 	    5.0000 	    3.0000 	   12.1973
    0.4196 	    8.4815 	    5.0000 	    3.0000 	   12.4423
    0.6180 	    8.5455 	    5.0000 	    3.0000 	   12.6984
    0.3738 	    8.6077 	    5.0000 	    3.0000 	   12.9474
    0.3891 	    8.6658 	    5.0000 	    3.0000 	   13.1794
    0.4196 	    8.7250 	    5.0000 	    3.0000 	   13.4164
    0.3128 	    8.7825 	    5.0000 	    3.0000 	   13.6464
    0.4654 	    8.8405 	    5.0000 	    3.0000 	   13.8784
    0.4654 	    8.8988 	    5.0000 	    3.0000 	   14.1114
    0.3586 	    8.9588 	    5.0000 	    3.0000 	   14.3514
    0.4044 	    9.0158 	    5.0000 	    3.0000 	   14.5795
    0.3433 	    9.0778 	    5.0000 	    3.0000 	   14.8275
    0.4044 	    9.1363 	    5.0000 	    3.0000 	   15.0615
    0.5570 	    9.1953 	    5.0000 	    3.0000 	   15.2975
    0.5112 	    9.2600 	    5.0000 	    3.0000 	   15.5565
    0.3586 	    9.3238 	    5.0000 	    3.0000 	   15.8115
    0.3891 	    9.3858 	    5.0000 	    3.0000 	   16.0595
    0.6027 	    9.4460 	    5.0000 	    3.0000 	   16.3006
    0.3738 	    9.5090 	    5.0000 	    3.0000 	   16.5526
    0.4196 	    9.5750 	    5.0000 	    3.0000 	   16.8166
    0.5417 	    9.6410 	    5.0000 	    3.0000 	   17.0806
    0.5570 	    9.7000 	    5.0000 	    3.0000 	   17.3166
    0.3738 	    9.7633 	    5.0000 	    3.0000 	   17.5696
    0.4196 	    9.8225 	    5.0000 	    3.0000 	   17.8066
    0.1602 	    9.8825 	    5.0000 	    3.0000 	   18.0467
    0.4807 	    9.9408 	    5.0000 	    3.0000 	   18.2797
    0.3891 	   10.0050 	    5.0000 	    3.0000 	   18.5367
    0.5570 	   10.0665 	    5.0000 	    3.0000 	   18.7827
    0.4807 	   10.1315 	    5.0000 	    3.0000 	   19.0427
    0.3586 	   10.1908 	    5.0000 	    3.0000 	   19.2797
    0.4349 	   10.2510 	    5.0000 	    3.0000 	   19.5207
    0.6790 	   10.3095 	    5.0000 	    3.0000 	   19.7548
    0.0839 	   10.3695 	    5.0000 	    3.0000 	   19.9948
    0.4501 	   10.4305 	    5.0000 	    3.0000 	   20.2388
    0.5722 	   10.4920 	    5.0000 	    3.0000 	   20.4848
    0.3586 	   10.5523 	    5.0000 	    3.0000 	   20.7258
    0.5722 	   10.6120 	    5.0000 	    3.0000 	   20.9648
    0.3738 	   10.6725 	    5.0000 	    3.0000 	   21.2068
    0.5570 	   10.7348 	    5.0000 	    3.0000 	   21.4559
    0.1602 	   10.8010 	    5.0000 	    3.0000 	   21.7209
    0.3738 	   10.8663 	    5.0000 	    3.0000 	   21.9819
    0.5417 	   10.9298 	    5.0000 	    3.0000 	   22.2359
    0.5417 	   10.9888 	    5.0000 	    3.0000 	   22.4719
    0.4654 	   11.0515 	    5.0000 	    3.0000 	   22.7229
    0.4501 	   11.1178 	    5.0000 	    3.0000 	   22.9879
    0.4959 	   11.1778 	    5.0000 	    3.0000 	   23.2280
    0.5570 	   11.2420 	    5.0000 	    3.0000 	   23.4850
    0.5112 	   11.3030 	    5.0000 	    3.0000 	   23.7290
    0.3891 	   11.3635 	    5.0000 	    3.0000 	   23.9710
    0.4959 	   11.4263 	    5.0000 	    3.0000 	   24.2220
    0.4196 	   11.4900 	    5.0000 	    3.0000 	   24.4770
    0.4807 	   11.5588 	    5.0000 	    3.0000 	   24.7520
    0.5112 	   11.6280 	    5.0000 	    3.0000 	   25.0291
    0.4501 	   11.6925 	    5.0000 	    3.0000 	   25.2871
    0.3433 	   11.7590 	    5.0000 	    3.0000 	   25.5531
    0.5417 	   11.8250 	    5.0000 	    3.0000 	   25.8171
    0.5570 	   11.8925 	    5.0000 	    3.0000 	   26.0871
    0.6027 	   11.9545 	    5.0000 	    3.0000 	   26.3351
    0.6332 	   12.0225 	    5.0000 	    3.0000 	   26.6071
    0.5570 	   12.0863 	    5.0000 	    3.0000 	   26.8622
    0.4196 	   12.1483 	    5.0000 	    3.0000 	   27.1102
    0.5112 	   12.2093 	    5.0000 	    3.0000 	   27.3532
    0.4654 	   12.2723 	    5.0000 	    3.0000 	   27.6052
    0.4501 	   12.3373 	    5.0000 	    3.0000 	   27.8652
    0.4349 	   12.4045 	    5.0000 	    3.0000 	   28.1342
    0.5570 	   12.4688 	    5.0000 	    3.0000 	   28.3913
    0.6485 	   12.5335 	    5.0000 	    3.0000 	   28.6503
    0.4349 	   12.6030 	    5.0000 	    3.0000 	   28.9283
    0.5112 	   12.6715 	    5.0000 	    3.0000 	   29.2023
    0.4501 	   12.7345 	    5.0000 	    3.0000 	   29.4543
    0.4959 	   12.8033 	    5.0000 	    3.0000 	   29.7293
    0.6027 	   12.8665 	    5.0000 	    3.0000 	   29.9823
    0.4654 	   12.9320 	    5.0000 	    3.0000 	   30.2444
    0.5112 	   12.9950 	    5.0000 	    3.0000 	   30.4964
    0.5875 	   13.0648 	    5.0000 	    3.0000 	   30.7754
    0.5722 	   13.1275 	    5.0000 	    3.0000 	   31.0264
    0.4044 	   13.1948 	    5.0000 	    3.0000 	   31.2954
    0.5417 	   13.2593 	    5.0000 	    3.0000 	   31.5534
    0.6180 	   13.3313 	    5.0000 	    3.0000 	   31.8414
    0.6332 	   13.3993 	    5.0000 	    3.0000 	   32.1135
    0.5417 	   13.4648 	    5.0000 	    3.0000 	   32.3755
    0.5112 	   13.5295 	    5.0000 	    3.0000 	   32.6345
    0.5112 	   13.5990 	    5.0000 	    3.0000 	   32.9125
    0.5875 	   13.6670 	    5.0000 	    3.0000 	   33.1845
    0.5417 	   13.7313 	    5.0000 	    3.0000 	   33.4415
    0.4501 	   13.8000 	    5.0000 	    3.0000 	   33.7166
    0.6485 	   13.8708 	    5.0000 	    3.0000 	   33.9996
    0.5875 	   13.9395 	    5.0000 	    3.0000 	   34.2746
    0.5570 	   14.0028 	    5.0000 	    3.0000 	   34.5276
    0.7095 	   14.0703 	    5.0000 	    3.0000 	   34.7976
    0.4959 	   14.1415 	    5.0000 	    3.0000 	   35.0826
    0.6027 	   14.2090 	    5.0000 	    3.0000 	   35.3526
    0.3433 	   14.2768 	    5.0000 	    3.0000 	   35.6237
    0.4654 	   14.3480 	    5.0000 	    3.0000 	   35.9087
    0.3128 	   14.4145 	    5.0000 	    3.0000 	   36.1747
    0.5570 	   14.4790 	    5.0000 	    3.0000 	   36.4327
    0.5875 	   14.5478 	    5.0000 	    3.0000 	   36.7077
    0.5417 	   14.6178 	    5.0000 	    3.0000 	   36.9877
    0.5570 	   14.6885 	    5.0000 	    3.0000 	   37.2708
    0.4959 	   14.7540 	    5.0000 	    3.0000 	   37.5328
    0.4501 	   14.8238 	    5.0000 	    3.0000 	   37.8108
    0.5112 	   14.8940 	    5.0000 	    3.0000 	   38.0928
    0.6027 	   14.9595 	    5.0000 	    3.0000 	   38.3548
    0.4044 	   15.0268 	    5.0000 	    3.0000 	   38.6238
    0.4654 	   15.0938 	    5.0000 	    3.0000 	   38.8918
    0.4959 	   15.1670 	    5.0000 	    3.0000 	   39.1849
    0.5570 	   15.2350 	    5.0000 	    3.0000 	   39.4569
    0.5875 	   15.3048 	    5.0000 	    3.0000 	   39.7359
    0.5722 	   15.3805 	    5.0000 	    3.0000 	   40.0389
    0.5112 	   15.4508 	    5.0000 	    3.0000 	   40.3199
    0.7553 	   15.5180 	    5.0000 	    3.0000 	   40.5889
    0.5722 	   15.5870 	    5.0000 	    3.0000 	   40.8650
    0.5875 	   15.6525 	    5.0000 	    3.0000 	   41.1270
    0.4807 	   15.7198 	    5.0000 	    3.0000 	   41.3960
    0.7248 	   15.7873 	    5.0000 	    3.0000 	   41.6660
    0.6027 	   15.8620 	    5.0000 	    3.0000 	   41.9650
    0.5112 	   15.9320 	    5.0000 	    3.0000 	   42.2450
    0.6180 	   15.9993 	    5.0000 	    3.0000 	   42.5141
    0.5264 	   16.0670 	    5.0000 	    3.0000 	   42.7851
    0.2670 	   16.1420 	    5.0000 	    3.0000 	   43.0851
    0.7858 	   16.2135 	    5.0000 	    3.0000 	   43.3711
    0.6027 	   16.2815 	    5.0000 	    3.0000 	   43.6431
    0.4654 	   16.3490 	    5.0000 	    3.0000 	   43.9131
    0.5875 	   16.4190 	    5.0000 	    3.0000 	   44.1932
    0.6332 	   16.4860 	    5.0000 	    3.0000 	   44.4612
    0.6790 	   16.5553 	    5.0000 	    3.0000 	   44.7382
    0.6485 	   16.6263 	    5.0000 	    3.0000 	   45.0212
    0.6790 	   16.6990 	    5.0000 	    3.0000 	   45.3122
    0.5875 	   16.7685 	    5.0000 	    3.0000 	   45.5902
    0.6485 	   16.8415 	    5.0000 	    3.0000 	   45.8822
    0.6638 	   16.9153 	    5.0000 	    3.0000 	   46.1773
    0.5570 	   16.9848 	    5.0000 	    3.0000 	   46.4553
    0.6180 	   17.0540 	    5.0000 	    3.0000 	   46.7323
    0.6332 	   17.1215 	    5.0000 	    3.0000 	   47.0023
    0.7401 	   17.1903 	    5.0000 	    3.0000 	   47.2773
    0.7248 	   17.2585 	    5.0000 	    3.0000 	   47.5503
    0.6027 	   17.3293 	    5.0000 	    3.0000 	   47.8334
    0.8316 	   17.4020 	    5.0000 	    3.0000 	   48.1244
    0.6027 	   17.4713 	    5.0000 	    3.0000 	   48.4014
    0.5722 	   17.5428 	    5.0000 	    3.0000 	   48.6874
    0.6332 	   17.6095 	    5.0000 	    3.0000 	   48.9544
    0.6332 	   17.6848 	    5.0000 	    3.0000 	   49.2554
    0.6638 	   17.7533 	    5.0000 	    3.0000 	   49.5295
    0.6485 	   17.8268 	    5.0000 	    3.0000 	   49.8235
    0.6332 	   17.9025 	    5.0000 	    3.0000 	   50.1265
    0.6332 	   17.9755 	    5.0000 	    3.0000 	   50.4185
    0.4654 	   18.0440 	    5.0000 	    3.0000 	   50.6925
    0.5112 	   18.1125 	    5.0000 	    3.0000 	   50.9665
    0.5722 	   18.1833 	    5.0000 	    3.0000 	   51.2496
    0.7095 	   18.2535 	    5.0000 	    3.0000 	   51.5306
    0.7095 	   18.3268 	    5.0000 	    3.0000 	   51.8236
    0.4959 	   18.4013 	    5.0000 	    3.0000 	   52.1216
    0.6485 	   18.4748 	    5.0000 	    3.0000 	   52.4156
    0.6790 	   18.5433 	    5.0000 	    3.0000 	   52.6896
    0.3281 	   18.6185 	    5.0000 	    3.0000 	   52.9907
    0.5570 	   18.6905 	    5.0000 	    3.0000 	   53.2787
    0.6943 	   18.7583 	    5.0000 	    3.0000 	   53.5497
    0.7095 	   18.8323 	    5.0000 	    3.0000 	   53.8457
    0.6943 	   18.9062 	    5.0000 	    3.0000 	   54.1417
    0.7095 	   18.9785 	    5.0000 	    3.0000 	   54.4307
    0.7401 	   19.0488 	    5.0000 	    3.0000 	   54.7118
    0.4349 	   19.1235 	    5.0000 	    3.0000 	   55.0108
    0.6943 	   19.1990 	    5.0000 	    3.0000 	   55.3128
    0.5417 	   19.2678 	    5.0000 	    3.0000 	   55.5878
    0.7858 	   19.3428 	    5.0000 	    3.0000 	   55.8878
    0.6332 	   19.4153 	    5.0000 	    3.0000 	   56.1778
    0.6943 	   19.4865 	    5.0000 	    3.0000 	   56.4629
    0.8621 	   19.5588 	    5.0000 	    3.0000 	   56.7519
    0.6332 	   19.6345 	    5.0000 	    3.0000 	   57.0549
    0.7248 	   19.7048 	    5.0000 	    3.0000 	   57.3359
    0.8774 	   19.7748 	    5.0000 	    3.0000 	   57.6159
    0.6485 	   19.8488 	    5.0000 	    3.0000 	   57.9119
    0.8774 	   19.9235 	    5.0000 	    3.0000 	   58.2110
    0.6943 	   19.9955 	    5.0000 	    3.0000 	   58.4990
    0.8316 	   20.0685 	    5.0000 	    3.0000 	   58.7910
    0.6332 	   20.1383 	    5.0000 	    3.0000 	   59.0700
    0.6638 	   20.2075 	    5.0000 	    3.0000 	   59.3470
    0.7706 	   20.2788 	    5.0000 	    3.0000 	   59.6320
    0.6332 	   20.3515 	    5.0000 	    3.0000 	   59.9231
    0.6485 	   20.4258 	    5.0000 	    4.0000 	    0.2201
    0.7095 	   20.4980 	    5.0000 	    4.0000 	    0.5091
    0.8011 	   20.5730 	    5.0000 	    4.0000 	    0.8091
    0.6638 	   20.6473 	    5.0000 	    4.0000 	    1.1061
    0.7401 	   20.7205 	    5.0000 	    4.0000 	    1.3991
    0.8164 	   20.7913 	    5.0000 	    4.0000 	    1.6822
    0.7095 	   20.8650 	    5.0000 	    4.0000 	    1.9772
    0.3738 	   20.9383 	    5.0000 	    4.0000 	    2.2692
    0.6027 	   21.0090 	    5.0000 	    4.0000 	    2.5522
    0.7095 	   21.0853 	    5.0000 	    4.0000 	    2.8572
    0.7248 	   21.1555 	    5.0000 	    4.0000 	    3.1382
    0.7248 	   21.2255 	    5.0000 	    4.0000 	    3.4183
    0.6943 	   21.2955 	    5.0000 	    4.0000 	    3.6983
    0.7401 	   21.3680 	    5.0000 	    4.0000 	    3.9883
    0.7553 	   21.4388 	    5.0000 	    4.0000 	    4.2713
    0.7553 	   21.5105 	    5.0000 	    4.0000 	    4.5583
    0.7553 	   21.5820 	    5.0000 	    4.0000 	    4.8443
    0.5875 	   21.6528 	    5.0000 	    4.0000 	    5.1274
    0.6485 	   21.7253 	    5.0000 	    4.0000 	    5.4174
    0.6790 	   21.7978 	    5.0000 	    4.0000 	    5.7074
    0.7401 	   21.8738 	    5.0000 	    4.0000 	    6.0114
    0.7706 	   21.9458 	    5.0000 	    4.0000 	    6.2994
    0.4959 	   22.0180 	    5.0000 	    4.0000 	    6.5884
    0.7095 	   22.0925 	    5.0000 	    4.0000 	    6.8865
    0.6332 	   22.1690 	    5.0000 	    4.0000 	    7.1925
    0.6638 	   22.2448 	    5.0000 	    4.0000 	    7.4955
    0.6332 	   22.3155 	    5.0000 	    4.0000 	    7.7785
    0.7401 	   22.3910 	    5.0000 	    4.0000 	    8.0805
    0.8164 	   22.4638 	    5.0000 	    4.0000 	    8.3715
    0.7858 	   22.5373 	    5.0000 	    4.0000 	    8.6656
    0.6943 	   22.6163 	    5.0000 	    4.0000 	    8.9816
    0.6485 	   22.6923 	    5.0000 	    4.0000 	    9.2856
    0.7401 	   22.7643 	    5.0000 	    4.0000 	    9.5736
    0.8011 	   22.8385 	    5.0000 	    4.0000 	    9.8706
    0.8011 	   22.9105 	    5.0000 	    4.0000 	   10.1586
    0.7553 	   22.9878 	    5.0000 	    4.0000 	   10.4677
    0.9232 	   23.0618 	    5.0000 	    4.0000 	   10.7637
    0.7706 	   23.1365 	    5.0000 	    4.0000 	   11.0627
    0.6638 	   23.2150 	    5.0000 	    4.0000 	   11.3767
    0.8011 	   23.2885 	    5.0000 	    4.0000 	   11.6707
    0.8011 	   23.3618 	    5.0000 	    4.0000 	   11.9637
    0.7858 	   23.4385 	    5.0000 	    4.0000 	   12.2708
    0.6790 	   23.5140 	    5.0000 	    4.0000 	   12.5728
    0.8011 	   23.5923 	    5.0000 	    4.0000 	   12.8858
    0.7858 	   23.6680 	    5.0000 	    4.0000 	   13.1888
    0.7095 	   23.7430 	    5.0000 	    4.0000 	   13.4888
    0.8774 	   23.8160 	    5.0000 	    4.0000 	   13.7808
    0.4501 	   23.8945 	    5.0000 	    4.0000 	   14.0949
    0.7706 	   23.9738 	    5.0000 	    4.0000 	   14.4119
    0.7553 	   24.0483 	    5.0000 	    4.0000 	   14.7099
    0.7401 	   24.1298 	    5.0000 	    4.0000 	   15.0359
    0.7858 	   24.2060 	    5.0000 	    4.0000 	   15.3409
    0.9232 	   24.2825 	    5.0000 	    4.0000 	   15.6470
    0.7248 	   24.3573 	    5.0000 	    4.0000 	   15.9460
    0.7248 	   24.4330 	    5.0000 	    4.0000 	   16.2490
    0.8316 	   24.5083 	    5.0000 	    4.0000 	   16.5500
    0.7553 	   24.5845 	    5.0000 	    4.0000 	   16.8550
    0.8011 	   24.6600 	    5.0000 	    4.0000 	   17.1570
    0.7401 	   24.7348 	    5.0000 	    4.0000 	   17.4561
    0.7248 	   24.8105 	    5.0000 	    4.0000 	   17.7591
    0.7401 	   24.8898 	    5.0000 	    4.0000 	   18.0761
    0.9079 	   24.9665 	    5.0000 	    4.0000 	   18.3831
    0.9232 	   25.0438 	    5.0000 	    4.0000 	   18.6921
    0.7553 	   25.1180 	    5.0000 	    4.0000 	   18.9891
    0.7095 	   25.1970 	    5.0000 	    4.0000 	   19.3052
    0.7095 	   25.2743 	    5.0000 	    4.0000 	   19.6142
    0.6790 	   25.3490 	    5.0000 	    4.0000 	   19.9122
    0.8011 	   25.4310 	    5.0000 	    4.0000 	   20.2402
    0.7401 	   25.5073 	    5.0000 	    4.0000 	   20.5452
    0.6790 	   25.5833 	    5.0000 	    4.0000 	   20.8493
    0.6180 	   25.6580 	    5.0000 	    4.0000 	   21.1483
    0.7858 	   25.7325 	    5.0000 	    4.0000 	   21.4463
    0.7706 	   25.8085 	    5.0000 	    4.0000 	   21.7503
    0.8316 	   25.8848 	    5.0000 	    4.0000 	   22.0553
    0.5112 	   25.9648 	    5.0000 	    4.0000 	   22.3753
    0.7858 	   26.0415 	    5.0000 	    4.0000 	   22.6824
    0.7858 	   26.1225 	    5.0000 	    4.0000 	   23.0064
    0.6332 	   26.2035 	    5.0000 	    4.0000 	   23.3304
    0.5112 	   26.2818 	    5.0000 	    4.0000 	   23.6434
    0.8164 	   26.3580 	    5.0000 	    4.0000 	   23.9484
    0.6943 	   26.4370 	    5.0000 	    4.0000 	   24.2644
    0.9842 	   26.5150 	    5.0000 	    4.0000 	   24.5765
    0.8621 	   26.5890 	    5.0000 	    4.0000 	   24.8725
    0.7858 	   26.6678 	    5.0000 	    4.0000 	   25.1875
    0.8774 	   26.7423 	    5.0000 	    4.0000 	   25.4855
    0.8621 	   26.8173 	    5.0000 	    4.0000 	   25.7855
    0.6485 	   26.8960 	    5.0000 	    4.0000 	   26.1005
    0.6943 	   26.9755 	    5.0000 	    4.0000 	   26.4186
    0.9384 	   27.0523 	    5.0000 	    4.0000 	   26.7256
    0.7401 	   27.1293 	    5.0000 	    4.0000 	   27.0336
    1.0147 	   27.2080 	    5.0000 	    4.0000 	   27.3486
    0.8011 	   27.2888 	    5.0000 	    4.0000 	   27.6716
    0.8164 	   27.3635 	    5.0000 	    4.0000 	   27.9707
    0.9537 	   27.4403 	    5.0000 	    4.0000 	   28.2777
    0.8316 	   27.5155 	    5.0000 	    4.0000 	   28.5787
    0.8621 	   27.5920 	    5.0000 	    4.0000 	   28.8847
    0.8164 	   27.6715 	    5.0000 	    4.0000 	   29.2027
    0.7401 	   27.7498 	    5.0000 	    4.0000 	   29.5157
    0.9232 	   27.8240 	    5.0000 	    4.0000 	   29.8128
    0.8774 	   27.9060 	    5.0000 	    4.0000 	   30.1408
    0.9384 	   27.9903 	    5.0000 	    4.0000 	   30.4778
    0.8469 	   28.0710 	    5.0000 	    4.0000 	   30.8008
    0.8469 	   28.1475 	    5.0000 	    4.0000 	   31.1068
    0.8164 	   28.2290 	    5.0000 	    4.0000 	   31.4329
    1.0147 	   28.3083 	    5.0000 	    4.0000 	   31.7499
    0.8927 	   28.3855 	    5.0000 	    4.0000 	   32.0589
    0.7858 	   28.4630 	    5.0000 	    4.0000 	   32.3689
    0.7553 	   28.5433 	    5.0000 	    4.0000 	   32.6899
    0.8927 	   28.6190 	    5.0000 	    4.0000 	   32.9929
    0.8774 	   28.7030 	    5.0000 	    4.0000 	   33.3290
    0.9689 	   28.7855 	    5.0000 	    4.0000 	   33.6590
    0.8774 	   28.8653 	    5.0000 	    4.0000 	   33.9780
    0.7706 	   28.9460 	    5.0000 	    4.0000 	   34.3010
    0.8621 	   29.0288 	    5.0000 	    4.0000 	   34.6320
    1.0605 	   29.1045 	    5.0000 	    4.0000 	   34.9351
    0.8927 	   29.1813 	    5.0000 	    4.0000 	   35.2421
    0.8927 	   29.2623 	    5.0000 	    4.0000 	   35.5661
    0.8927 	   29.3390 	    5.0000 	    4.0000 	   35.8731
    0.7706 	   29.4200 	    5.0000 	    4.0000 	   36.1971
    0.8774 	   29.4973 	    5.0000 	    4.0000 	   36.5061
    1.0147 	   29.5773 	    5.0000 	    4.0000 	   36.8262
    0.8164 	   29.6555 	    5.0000 	    4.0000 	   37.1392
    0.8927 	   29.7378 	    5.0000 	    4.0000 	   37.4672
    0.9079 	   29.8153 	    5.0000 	    4.0000 	   37.7772
    0.9689 	   29.8958 	    5.0000 	    4.0000 	   38.0992
    0.8927 	   29.9748 	    5.0000 	    4.0000 	   38.4153
    0.8011 	   30.0555 	    5.0000 	    4.0000 	   38.7383
    0.8621 	   30.1318 	    5.0000 	    4.0000 	   39.0433
    0.5570 	   30.2078 	    5.0000 	    4.0000 	   39.3473
    0.7248 	   30.2853 	    5.0000 	    4.0000 	   39.6573
    0.8469 	   30.3643 	    5.0000 	    4.0000 	   39.9733
    0.8621 	   30.4475 	    5.0000 	    4.0000 	   40.3064
    0.9232 	   30.5273 	    5.0000 	    4.0000 	   40.6254
    0.8469 	   30.6055 	    5.0000 	    4.0000 	   40.9384
    0.8927 	   30.6878 	    5.0000 	    4.0000 	   41.2674
    0.9384 	   30.7698 	    5.0000 	    4.0000 	   41.5954
    0.8774 	   30.8513 	    5.0000 	    4.0000 	   41.9215
    0.8316 	   30.9325 	    5.0000 	    4.0000 	   42.2465
    1.0147 	   31.0100 	    5.0000 	    4.0000 	   42.5555
    0.8164 	   31.0915 	    5.0000 	    4.0000 	   42.8825
    0.8469 	   31.1770 	    5.0000 	    4.0000 	   43.2245
    0.7095 	   31.2630 	    5.0000 	    4.0000 	   43.5686
    0.8621 	   31.3405 	    5.0000 	    4.0000 	   43.8786
    0.9537 	   31.4193 	    5.0000 	    4.0000 	   44.1936
    0.7858 	   31.4995 	    5.0000 	    4.0000 	   44.5146
    0.8164 	   31.5800 	    5.0000 	    4.0000 	   44.8366
    0.7858 	   31.6570 	    5.0000 	    4.0000 	   45.1446
    0.7401 	   31.7400 	    5.0000 	    4.0000 	   45.4767
    0.8316 	   31.8198 	    5.0000 	    4.0000 	   45.7957
    0.8164 	   31.8980 	    5.0000 	    4.0000 	   46.1087
    0.8316 	   31.9835 	    5.0000 	    4.0000 	   46.4507
    0.7706 	   32.0643 	    5.0000 	    4.0000 	   46.7737
    0.9384 	   32.1453 	    5.0000 	    4.0000 	   47.0978
    0.8927 	   32.2255 	    5.0000 	    4.0000 	   47.4188
    0.9995 	   32.3065 	    5.0000 	    4.0000 	   47.7428
    0.7706 	   32.3850 	    5.0000 	    4.0000 	   48.0568
    0.8621 	   32.4650 	    5.0000 	    4.0000 	   48.3768
    0.7401 	   32.5483 	    5.0000 	    4.0000 	   48.7098
    0.8469 	   32.6305 	    5.0000 	    4.0000 	   49.0389
    0.7706 	   32.7185 	    5.0000 	    4.0000 	   49.3909
    0.8621 	   32.8050 	    5.0000 	    4.0000 	   49.7369
    0.7401 	   32.8848 	    5.0000 	    4.0000 	   50.0559
    0.6638 	   32.9678 	    5.0000 	    4.0000 	   50.3879
    0.7706 	   33.0543 	    5.0000 	    4.0000 	   50.7340
    0.6943 	   33.1318 	    5.0000 	    4.0000 	   51.0440
    1.0605 	   33.2118 	    5.0000 	    4.0000 	   51.3640
    0.7401 	   33.2913 	    5.0000 	    4.0000 	   51.6820
    0.4654 	   33.3705 	    5.0000 	    4.0000 	   51.9990
    0.6943 	   33.4533 	    5.0000 	    4.0000 	   52.3301
    0.7553 	   33.5368 	    5.0000 	    4.0000 	   52.6641
    0.7553 	   33.6205 	    5.0000 	    4.0000 	   52.9991
    0.6180 	   33.7025 	    5.0000 	    4.0000 	   53.3271
    0.3891 	   33.7888 	    5.0000 	    4.0000 	   53.6721
    0.6332 	   33.8705 	    5.0000 	    4.0000 	   53.9991
    0.5112 	   33.9565 	    5.0000 	    4.0000 	   54.3432
    0.8621 	   34.0390 	    5.0000 	    4.0000 	   54.6732
    0.7401 	   34.1205 	    5.0000 	    4.0000 	   54.9982
    0.9079 	   34.2065 	    5.0000 	    4.0000 	   55.3422
    0.8164 	   34.2898 	    5.0000 	    4.0000 	   55.6752
    0.7706 	   34.3708 	    5.0000 	    4.0000 	   55.9993
    0.6790 	   34.4540 	    5.0000 	    4.0000 	   56.3323
    0.7095 	   34.5355 	    5.0000 	    4.0000 	   56.6583
    0.6638 	   34.6190 	    5.0000 	    4.0000 	   56.9923
    0.7706 	   34.6995 	    5.0000 	    4.0000 	   57.3143
    0.7401 	   34.7858 	    5.0000 	    4.0000 	   57.6594
    0.6485 	   34.8675 	    5.0000 	    4.0000 	   57.9864
    0.7706 	   34.9533 	    5.0000 	    4.0000 	   58.3294
    0.8011 	   35.0382 	    5.0000 	    4.0000 	   58.6694
    0.7553 	   35.1200 	    5.0000 	    4.0000 	   58.9964
    0.7706 	   35.2003 	    5.0000 	    4.0000 	   59.3175
    0.6943 	   35.2838 	    5.0000 	    4.0000 	   59.6515
    0.6790 	   35.3643 	    5.0000 	    4.0000 	   59.9735
    0.4807 	   35.4480 	    5.0000 	    5.0000 	    0.3085
    0.6180 	   35.5308 	    5.0000 	    5.0000 	    0.6395
    0.8164 	   35.6138 	    5.0000 	    5.0000 	    0.9715
    0.8774 	   35.6973 	    5.0000 	    5.0000 	    1.3056
    0.6790 	   35.7820 	    5.0000 	    5.0000 	    1.6446
    0.6638 	   35.8780 	    5.0000 	    5.0000 	    2.0286
    0.6027 	   35.9618 	    5.0000 	    5.0000 	    2.3626
    0.7706 	   36.0475 	    5.0000 	    5.0000 	    2.7066
    0.5875 	   36.1328 	    5.0000 	    5.0000 	    3.0477
    0.8316 	   36.2178 	    5.0000 	    5.0000 	    3.3877
    0.6638 	   36.3003 	    5.0000 	    5.0000 	    3.7177
    0.4654 	   36.3860 	    5.0000 	    5.0000 	    4.0607
    0.7095 	   36.4738 	    5.0000 	    5.0000 	    4.4117
    0.8011 	   36.5568 	    5.0000 	    5.0000 	    4.7438
    0.6790 	   36.6440 	    5.0000 	    5.0000 	    5.0928
    0.6332 	   36.7288 	    5.0000 	    5.0000 	    5.4318
    0.4501 	   36.8198 	    5.0000 	    5.0000 	    5.7958
    0.6790 	   36.9015 	    5.0000 	    5.0000 	    6.1228
    0.7095 	   36.9845 	    5.0000 	    5.0000 	    6.4549
    0.6332 	   37.0688 	    5.0000 	    5.0000 	    6.7919
    0.4044 	   37.1508 	    5.0000 	    5.0000 	    7.1199
    0.6790 	   37.2365 	    5.0000 	    5.0000 	    7.4629
    0.6485 	   37.3210 	    5.0000 	    5.0000 	    7.8009
    0.6638 	   37.4050 	    5.0000 	    5.0000 	    8.1370
    0.6332 	   37.4900 	    5.0000 	    5.0000 	    8.4770
    0.5722 	   37.5743 	    5.0000 	    5.0000 	    8.8140
    0.5722 	   37.6588 	    5.0000 	    5.0000 	    9.1520
    0.5875 	   37.7438 	    5.0000 	    5.0000 	    9.4920
    0.7706 	   37.8303 	    5.0000 	    5.0000 	    9.8381
    0.6943 	   37.9138 	    5.0000 	    5.0000 	   10.1721
    0.6790 	   37.9968 	    5.0000 	    5.0000 	   10.5041
    0.5570 	   38.0883 	    5.0000 	    5.0000 	   10.8701
    0.6332 	   38.1745 	    5.0000 	    5.0000 	   11.2151
    0.6180 	   38.2590 	    5.0000 	    5.0000 	   11.5532
    0.6332 	   38.3448 	    5.0000 	    5.0000 	   11.8962
    0.3128 	   38.4278 	    5.0000 	    5.0000 	   12.2272
    0.6638 	   38.5138 	    5.0000 	    5.0000 	   12.5712
    0.5570 	   38.5990 	    5.0000 	    5.0000 	   12.9122
    0.4349 	   38.6858 	    5.0000 	    5.0000 	   13.2592
    0.5875 	   38.7765 	    5.0000 	    5.0000 	   13.6223
    0.6180 	   38.8640 	    5.0000 	    5.0000 	   13.9723
    0.6027 	   38.9490 	    5.0000 	    5.0000 	   14.3123
    0.6638 	   39.0355 	    5.0000 	    5.0000 	   14.6583
    0.5112 	   39.1215 	    5.0000 	    5.0000 	   15.0023
    0.5570 	   39.2080 	    5.0000 	    5.0000 	   15.3484
    0.7401 	   39.2958 	    5.0000 	    5.0000 	   15.6994
    0.5417 	   39.3808 	    5.0000 	    5.0000 	   16.0394
    0.5417 	   39.4655 	    5.0000 	    5.0000 	   16.3784
    0.6638 	   39.5520 	    5.0000 	    5.0000 	   16.7244
    0.5112 	   39.6378 	    5.0000 	    5.0000 	   17.0675
    0.5722 	   39.7205 	    5.0000 	    5.0000 	   17.3985
    0.3586 	   39.8060 	    5.0000 	    5.0000 	   17.7405
    0.5722 	   39.8903 	    5.0000 	    5.0000 	   18.0775
    0.5875 	   39.9745 	    5.0000 	    5.0000 	   18.4145
    0.7248 	   40.0600 	    5.0000 	    5.0000 	   18.7566
    0.4807 	   40.1458 	    5.0000 	    5.0000 	   19.0996
    0.6180 	   40.2308 	    5.0000 	    5.0000 	   19.4396
    0.5722 	   40.3225 	    5.0000 	    5.0000 	   19.8066
    0.5112 	   40.4095 	    5.0000 	    5.0000 	   20.1546
    0.5417 	   40.4933 	    5.0000 	    5.0000 	   20.4897
    0.4196 	   40.5785 	    5.0000 	    5.0000 	   20.8307
    0.6180 	   40.6675 	    5.0000 	    5.0000 	   21.1867
    0.6180 	   40.7543 	    5.0000 	    5.0000 	   21.5337
    0.5875 	   40.8403 	    5.0000 	    5.0000 	   21.8777
    0.7095 	   40.9285 	    5.0000 	    5.0000 	   22.2308
    0.6790 	   41.0158 	    5.0000 	    5.0000 	   22.5798
    0.4959 	   41.1013 	    5.0000 	    5.0000 	   22.9218
    0.5112 	   41.1878 	    5.0000 	    5.0000 	   23.2678
    0.5112 	   41.2763 	    5.0000 	    5.0000 	   23.6218
    0.6638 	   41.3638 	    5.0000 	    5.0000 	   23.9719
    0.4196 	   41.4530 	    5.0000 	    5.0000 	   24.3289
    0.5875 	   41.5428 	    5.0000 	    5.0000 	   24.6879
    0.2060 	   41.6318 	    5.0000 	    5.0000 	   25.0439
    0.4807 	   41.7198 	    5.0000 	    5.0000 	   25.3959
    0.4501 	   41.8065 	    5.0000 	    5.0000 	   25.7430
    0.5722 	   41.8925 	    5.0000 	    5.0000 	   26.0870
    0.6180 	   41.9788 	    5.0000 	    5.0000 	   26.4320
    0.5417 	   42.0703 	    5.0000 	    5.0000 	   26.7980
    0.5264 	   42.1568 	    5.0000 	    5.0000 	   27.1440
    0.5570 	   42.2450 	    5.0000 	    5.0000 	   27.4971
    0.4807 	   42.3363 	    5.0000 	    5.0000 	   27.8621
    0.5264 	   42.4243 	    5.0000 	    5.0000 	   28.2141
    0.5570 	   42.5160 	    5.0000 	    5.0000 	   28.5811
    0.5875 	   42.6038 	    5.0000 	    5.0000 	   28.9321
    0.5264 	   42.6935 	    5.0000 	    5.0000 	   29.2912
    0.4959 	   42.7843 	    5.0000 	    5.0000 	   29.6542
    0.5264 	   42.8713 	    5.0000 	    5.0000 	   30.0012
    0.5264 	   42.9580 	    5.0000 	    5.0000 	   30.3482
    0.5570 	   43.0513 	    5.0000 	    5.0000 	   30.7212
    0.4959 	   43.1440 	    5.0000 	    5.0000 	   31.0923
    0.3128 	   43.2340 	    5.0000 	    5.0000 	   31.4523
    0.6332 	   43.3225 	    5.0000 	    5.0000 	   31.8063
    0.6027 	   43.4118 	    5.0000 	    5.0000 	   32.1633
    0.5112 	   43.5008 	    5.0000 	    5.0000 	   32.5193
    0.5722 	   43.5900 	    5.0000 	    5.0000 	   32.8764
    0.4959 	   43.6798 	    5.0000 	    5.0000 	   33.2354
    0.4807 	   43.7710 	    5.0000 	    5.0000 	   33.6004
    0.4349 	   43.8643 	    5.0000 	    5.0000 	   33.9734
    0.4654 	   43.9523 	    5.0000 	    5.0000 	   34.3255
    0.6027 	   44.0443 	    5.0000 	    5.0000 	   34.6935
    0.5417 	   44.1323 	    5.0000 	    5.0000 	   35.0455
    0.5875 	   44.2205 	    5.0000 	    5.0000 	   35.3985
    0.5417 	   44.3083 	    5.0000 	    5.0000 	   35.7495
    0.4044 	   44.4028 	    5.0000 	    5.0000 	   36.1276
    0.6485 	   44.4930 	    5.0000 	    5.0000 	   36.4886
    0.3128 	   44.5850 	    5.0000 	    5.0000 	   36.8566
    0.3433 	   44.6748 	    5.0000 	    5.0000 	   37.2156
    0.5112 	   44.7640 	    5.0000 	    5.0000 	   37.5726
    0.5570 	   44.8530 	    5.0000 	    5.0000 	   37.9287
    0.5875 	   44.9418 	    5.0000 	    5.0000 	   38.2837
    0.4959 	   45.0313 	    5.0000 	    5.0000 	   38.6417
    0.5112 	   45.1200 	    5.0000 	    5.0000 	   38.9967
    0.4959 	   45.2098 	    5.0000 	    5.0000 	   39.3557
    0.4807 	   45.2985 	    5.0000 	    5.0000 	   39.7108
    0.4349 	   45.3890 	    5.0000 	    5.0000 	   40.0728
    0.4654 	   45.4783 	    5.0000 	    5.0000 	   40.4298
    0.4349 	   45.5660 	    5.0000 	    5.0000 	   40.7808
    0.4349 	   45.6575 	    5.0000 	    5.0000 	   41.1468
    0.4959 	   45.7495 	    5.0000 	    5.0000 	   41.5149
    0.4196 	   45.8378 	    5.0000 	    5.0000 	   41.8679
    0.4959 	   45.9280 	    5.0000 	    5.0000 	   42.2289
    0.2976 	   46.0188 	    5.0000 	    5.0000 	   42.5919
    0.3586 	   46.1090 	    5.0000 	    5.0000 	   42.9529
    0.4196 	   46.2005 	    5.0000 	    5.0000 	   43.3190
    0.4349 	   46.2928 	    5.0000 	    5.0000 	   43.6880
    0.4044 	   46.3870 	    5.0000 	    5.0000 	   44.0650
    0.3281 	   46.4800 	    5.0000 	    5.0000 	   44.4370
    0.4196 	   46.5703 	    5.0000 	    5.0000 	   44.7980
    0.5112 	   46.6635 	    5.0000 	    5.0000 	   45.1711
    0.4959 	   46.7555 	    5.0000 	    5.0000 	   45.5391
    0.3738 	   46.8445 	    5.0000 	    5.0000 	   45.8951
    0.5264 	   46.9355 	    5.0000 	    5.0000 	   46.2591
    0.2823 	   47.0283 	    5.0000 	    5.0000 	   46.6302
    0.4349 	   47.1205 	    5.0000 	    5.0000 	   46.9992
    0.4044 	   47.2120 	    5.0000 	    5.0000 	   47.3642
    0.5264 	   47.3050 	    5.0000 	    5.0000 	   47.7362
    0.4196 	   47.3975 	    5.0000 	    5.0000 	   48.1062
    0.3128 	   47.4883 	    5.0000 	    5.0000 	   48.4693
    0.3128 	   47.5805 	    5.0000 	    5.0000 	   48.8383
    0.6638 	   47.6758 	    5.0000 	    5.0000 	   49.2193
    0.3738 	   47.7693 	    5.0000 	    5.0000 	   49.5933
    0.6180 	   47.8628 	    5.0000 	    5.0000 	   49.9673
    0.3891 	   47.9548 	    5.0000 	    5.0000 	   50.3354
    0.4501 	   48.0515 	    5.0000 	    5.0000 	   50.7224
    0.2823 	   48.1458 	    5.0000 	    5.0000 	   51.0994
    0.3738 	   48.2380 	    5.0000 	    5.0000 	   51.4684
    0.3891 	   48.3293 	    5.0000 	    5.0000 	   51.8335
    0.3891 	   48.4208 	    5.0000 	    5.0000 	   52.1995
    0.3738 	   48.5138 	    5.0000 	    5.0000 	   52.5715
    0.3433 	   48.6088 	    5.0000 	    5.0000 	   52.9515
    0.4654 	   48.7005 	    5.0000 	    5.0000 	   53.3185
    0.4654 	   48.7938 	    5.0000 	    5.0000 	   53.6916
    0.3128 	   48.8883 	    5.0000 	    5.0000 	   54.0696
    0.2823 	   48.9840 	    5.0000 	    5.0000 	   54.4526
    0.2976 	   49.0783 	    5.0000 	    5.0000 	   54.8296
    0.4044 	   49.1735 	    5.0000 	    5.0000 	   55.2106
    0.3128 	   49.2660 	    5.0000 	    5.0000 	   55.5807
    0.3128 	   49.3573 	    5.0000 	    5.0000 	   55.9457
    0.3586 	   49.4500 	    5.0000 	    5.0000 	   56.3167
    0.1144 	   49.5423 	    5.0000 	    5.0000 	   56.6857
    0.3738 	   49.6358 	    5.0000 	    5.0000 	   57.0598
    0.2823 	   49.7300 	    5.0000 	    5.0000 	   57.4368
    0.3891 	   49.8213 	    5.0000 	    5.0000 	   57.8018
    0.2823 	   49.9158 	    5.0000 	    5.0000 	   58.1798
    0.3281 	   50.0095 	    5.0000 	    5.0000 	   58.5548
    0.2670 	   50.1035 	    5.0000 	    5.0000 	   58.9309
    0.2976 	   50.1995 	    5.0000 	    5.0000 	   59.3149
    0.3128 	   50.2923 	    5.0000 	    5.0000 	   59.6859
    0.4959 	   50.3888 	    5.0000 	    6.0000 	    0.0719
    0.3891 	   50.4823 	    5.0000 	    6.0000 	    0.4459
    0.3128 	   50.5783 	    5.0000 	    6.0000 	    0.8300
    0.4196 	   50.6755 	    5.0000 	    6.0000 	    1.2190
    0.1450 	   50.7743 	    5.0000 	    6.0000 	    1.6140
    0.3586 	   50.8675 	    5.0000 	    6.0000 	    1.9870
    0.2823 	   50.9608 	    5.0000 	    6.0000 	    2.3601
    0.3433 	   51.0608 	    5.0000 	    6.0000 	    2.7601
    0.3128 	   51.1593 	    5.0000 	    6.0000 	    3.1541
    0.4044 	   51.2550 	    5.0000 	    6.0000 	    3.5371
    0.3891 	   51.3510 	    5.0000 	    6.0000 	    3.9211
    0.4044 	   51.4493 	    5.0000 	    6.0000 	    4.3142
    0.3281 	   51.5445 	    5.0000 	    6.0000 	    4.6942
    0.2670 	   51.6395 	    5.0000 	    6.0000 	    5.0742
    0.4349 	   51.7368 	    5.0000 	    6.0000 	    5.4632
    0.4959 	   51.8340 	    5.0000 	    6.0000 	    5.8523
    0.4349 	   51.9350 	    5.0000 	    6.0000 	    6.2563
    0.2518 	   52.0300 	    5.0000 	    6.0000 	    6.6363
    0.2976 	   52.1260 	    5.0000 	    6.0000 	    7.0203
    0.2823 	   52.2260 	    5.0000 	    6.0000 	    7.4203
    0.3281 	   52.3215 	    5.0000 	    6.0000 	    7.8024
    0.3433 	   52.4178 	    5.0000 	    6.0000 	    8.1874
    0.4501 	   52.5148 	    5.0000 	    6.0000 	    8.5754
    0.2976 	   52.6103 	    5.0000 	    6.0000 	    8.9574
    0.3891 	   52.7078 	    5.0000 	    6.0000 	    9.3475
    0.2213 	   52.8028 	    5.0000 	    6.0000 	    9.7275
    0.1602 	   52.8993 	    5.0000 	    6.0000 	   10.1135
    0.3738 	   52.9978 	    5.0000 	    6.0000 	   10.5075
    0.1450 	   53.0958 	    5.0000 	    6.0000 	   10.8995
    0.1755 	   53.1913 	    5.0000 	    6.0000 	   11.2816
    0.2060 	   53.2885 	    5.0000 	    6.0000 	   11.6706
    0.3128 	   53.3858 	    5.0000 	    6.0000 	   12.0596
    0.2976 	   53.4823 	    5.0000 	    6.0000 	   12.4456
    0.2976 	   53.5785 	    5.0000 	    6.0000 	   12.8307
    0.2823 	   53.6755 	    5.0000 	    6.0000 	   13.2187
    0.4044 	   53.7728 	    5.0000 	    6.0000 	   13.6077
    0.2060 	   53.8710 	    5.0000 	    6.0000 	   14.0007
    0.3281 	   53.9660 	    5.0000 	    6.0000 	   14.3807
    0.3891 	   54.0633 	    5.0000 	    6.0000 	   14.7698
    0.3128 	   54.1613 	    5.0000 	    6.0000 	   15.1618
    0.2518 	   54.2605 	    5.0000 	    6.0000 	   15.5588
    0.3128 	   54.3565 	    5.0000 	    6.0000 	   15.9428
    0.0992 	   54.4538 	    5.0000 	    6.0000 	   16.3319
    0.2670 	   54.5500 	    5.0000 	    6.0000 	   16.7169
    0.4501 	   54.6508 	    5.0000 	    6.0000 	   17.1199
    0.2518 	   54.7493 	    5.0000 	    6.0000 	   17.5139
    0.2976 	   54.8453 	    5.0000 	    6.0000 	   17.8979
    0.2976 	   54.9443 	    5.0000 	    6.0000 	   18.2940
    0.3433 	   55.0455 	    5.0000 	    6.0000 	   18.6990
    0.3891 	   55.1440 	    5.0000 	    6.0000 	   19.0930
    0.2518 	   55.2423 	    5.0000 	    6.0000 	   19.4860
    0.2060 	   55.3415 	    5.0000 	    6.0000 	   19.8831
    0.0839 	   55.4428 	    5.0000 	    6.0000 	   20.2881
    0.2518 	   55.5405 	    5.0000 	    6.0000 	   20.6791
    0.3281 	   55.6385 	    5.0000 	    6.0000 	   21.0711
    0.1755 	   55.7383 	    5.0000 	    6.0000 	   21.4701
    0.0839 	   55.8373 	    5.0000 	    6.0000 	   21.8662
    0.5112 	   55.9363 	    5.0000 	    6.0000 	   22.2612
    0.3738 	   56.0393 	    5.0000 	    6.0000 	   22.6732
    0.2670 	   56.1363 	    5.0000 	    6.0000 	   23.0612
    0.1755 	   56.2338 	    5.0000 	    6.0000 	   23.4513
    0.4044 	   56.3325 	    5.0000 	    6.0000 	   23.8463
    0.2670 	   56.4300 	    5.0000 	    6.0000 	   24.2363
    0.2365 	   56.5320 	    5.0000 	    6.0000 	   24.6443
    0.1755 	   56.6290 	    5.0000 	    6.0000 	   25.0324
    0.3586 	   56.7268 	    5.0000 	    6.0000 	   25.4234
    0.2670 	   56.8245 	    5.0000 	    6.0000 	   25.8144
    0.3281 	   56.9248 	    5.0000 	    6.0000 	   26.2154
    0.2670 	   57.0248 	    5.0000 	    6.0000 	   26.6154
    0.2670 	   57.1243 	    5.0000 	    6.0000 	   27.0135
    0.2365 	   57.2230 	    5.0000 	    6.0000 	   27.4085
    0.1907 	   57.3258 	    5.0000 	    6.0000 	   27.8195
    0.1450 	   57.4245 	    5.0000 	    6.0000 	   28.2145
    0.3433 	   57.5225 	    5.0000 	    6.0000 	   28.6066
    0.2060 	   57.6198 	    5.0000 	    6.0000 	   28.9956
    0.2823 	   57.7190 	    5.0000 	    6.0000 	   29.3926
    0.1755 	   57.8185 	    5.0000 	    6.0000 	   29.7906
    0.1907 	   57.9173 	    5.0000 	    6.0000 	   30.1856
    0.2365 	   58.0183 	    5.0000 	    6.0000 	   30.5897
    0.2670 	   58.1173 	    5.0000 	    6.0000 	   30.9857
    0.1297 	   58.2165 	    5.0000 	    6.0000 	   31.3827
    0.1450 	   58.3173 	    5.0000 	    6.0000 	   31.7857
    0.2823 	   58.4155 	    5.0000 	    6.0000 	   32.1788
    0.3128 	   58.5135 	    5.0000 	    6.0000 	   32.5708
    0.2365 	   58.6110 	    5.0000 	    6.0000 	   32.9608
    0.0839 	   58.7085 	    5.0000 	    6.0000 	   33.3508
    0.0839 	   58.8095 	    5.0000 	    6.0000 	   33.7549
    0.2060 	   58.9070 	    5.0000 	    6.0000 	   34.1449
    0.2060 	   59.0060 	    5.0000 	    6.0000 	   34.5409
    0.1602 	   59.1043 	    5.0000 	    6.0000 	   34.9339
    0.2213 	   59.2040 	    5.0000 	    6.0000 	   35.3329
    0.1907 	   59.3035 	    5.0000 	    6.0000 	   35.7310
    0.1907 	   59.4013 	    5.0000 	    6.0000 	   36.1220
    0.3281 	   59.5033 	    5.0000 	    6.0000 	   36.5300
    0.2518 	   59.6008 	    5.0000 	    6.0000 	   36.9200
    0.1907 	   59.6993 	    5.0000 	    6.0000 	   37.3141
    0.2060 	   59.7993 	    5.0000 	    6.0000 	   37.7141
    0.1755 	   59.8970 	    5.0000 	    6.0000 	   38.1051
    0.1907 	   59.9985 	    5.0000 	    6.0000 	   38.5111
    0.3281 	   60.0953 	    5.0000 	    6.0000 	   38.8981
    0.0381 	   60.1955 	    5.0000 	    6.0000 	   39.2992
    0.2213 	   60.2958 	    5.0000 	    6.0000 	   39.6992
    0.2518 	   60.3968 	    5.0000 	    6.0000 	   40.1032
    0.3128 	   60.4955 	    5.0000 	    6.0000 	   40.4982
    0.0534 	   60.5643 	    5.0000 	    6.0000 	   40.7733