File: instron/short_3W15L_drag30_spd15.txt
Thayer School of Engineering        Instron 4442 Mechanical Testing System
6/28/2018 5:07:25 AM

  Force (N)	Extension (mm)	Not Used	Not Used	Not Used	     Hour	    Minute	    Second
    0.1755 	    0.2570 	    5.0000 	    8.0000 	   18.8759
    0.2365 	    0.3435 	    5.0000 	    8.0000 	   19.2219
    0.2670 	    0.4280 	    5.0000 	    8.0000 	   19.5599
    0.0992 	    0.5175 	    5.0000 	    8.0000 	   19.9179
    0.2976 	    0.6020 	    5.0000 	    8.0000 	   20.2559
    0.2365 	    0.6855 	    5.0000 	    8.0000 	   20.5900
    0.2060 	    0.7735 	    5.0000 	    8.0000 	   20.9420
    0.2976 	    0.8388 	    5.0000 	    8.0000 	   21.2030
    0.1907 	    0.9010 	    5.0000 	    8.0000 	   21.4520
    0.0839 	    0.9580 	    5.0000 	    8.0000 	   21.6800
    0.2365 	    1.0143 	    5.0000 	    8.0000 	   21.9050
    0.2823 	    1.0670 	    5.0000 	    8.0000 	   22.1161
    0.2060 	    1.1175 	    5.0000 	    8.0000 	   22.3181
    0.3586 	    1.1800 	    5.0000 	    8.0000 	   22.5681
    0.0076 	    1.2310 	    5.0000 	    8.0000 	   22.7721
    0.3128 	    1.2838 	    5.0000 	    8.0000 	   22.9831
    0.3128 	    1.3310 	    5.0000 	    8.0000 	   23.1721
    0.3433 	    1.3805 	    5.0000 	    8.0000 	   23.3701
    0.2365 	    1.4363 	    5.0000 	    8.0000 	   23.5931
    0.3128 	    1.4910 	    5.0000 	    8.0000 	   23.8121
    0.1755 	    1.5445 	    5.0000 	    8.0000 	   24.0262
    0.1602 	    1.5945 	    5.0000 	    8.0000 	   24.2262
    0.3433 	    1.6480 	    5.0000 	    8.0000 	   24.4402
    0.2976 	    1.7050 	    5.0000 	    8.0000 	   24.6682
    0.2976 	    1.7600 	    5.0000 	    8.0000 	   24.8882
    0.2060 	    1.8108 	    5.0000 	    8.0000 	   25.0912
    0.2518 	    1.8640 	    5.0000 	    8.0000 	   25.3042
    0.2365 	    1.9208 	    5.0000 	    8.0000 	   25.5312
    0.2518 	    1.9763 	    5.0000 	    8.0000 	   25.7523
    0.3738 	    2.0320 	    5.0000 	    8.0000 	   25.9753
    0.2060 	    2.0813 	    5.0000 	    8.0000 	   26.1723
    0.2976 	    2.1283 	    5.0000 	    8.0000 	   26.3603
    0.4044 	    2.1823 	    5.0000 	    8.0000 	   26.5763
    0.2670 	    2.2380 	    5.0000 	    8.0000 	   26.7993
    0.3433 	    2.2928 	    5.0000 	    8.0000 	   27.0183
    0.3281 	    2.3408 	    5.0000 	    8.0000 	   27.2103
    0.3128 	    2.3963 	    5.0000 	    8.0000 	   27.4324
    0.0534 	    2.4503 	    5.0000 	    8.0000 	   27.6484
    0.3891 	    2.4985 	    5.0000 	    8.0000 	   27.8414
    0.3281 	    2.5470 	    5.0000 	    8.0000 	   28.0354
    0.3738 	    2.5975 	    5.0000 	    8.0000 	   28.2374
    0.4349 	    2.6515 	    5.0000 	    8.0000 	   28.4534
    0.4501 	    2.7070 	    5.0000 	    8.0000 	   28.6754
    0.2670 	    2.7633 	    5.0000 	    8.0000 	   28.9004
   -0.0534 	    2.8173 	    5.0000 	    8.0000 	   29.1164
    0.2823 	    2.8690 	    5.0000 	    8.0000 	   29.3235
    0.2823 	    2.9270 	    5.0000 	    8.0000 	   29.5555
    0.3433 	    2.9845 	    5.0000 	    8.0000 	   29.7855
    0.2213 	    3.0405 	    5.0000 	    8.0000 	   30.0095
    0.2823 	    3.0900 	    5.0000 	    8.0000 	   30.2075
    0.3738 	    3.1473 	    5.0000 	    8.0000 	   30.4365
    0.3891 	    3.2033 	    5.0000 	    8.0000 	   30.6605
    0.3738 	    3.2603 	    5.0000 	    8.0000 	   30.8886
    0.3281 	    3.3130 	    5.0000 	    8.0000 	   31.0996
    0.1297 	    3.3643 	    5.0000 	    8.0000 	   31.3046
    0.3433 	    3.4200 	    5.0000 	    8.0000 	   31.5276
    0.2670 	    3.4720 	    5.0000 	    8.0000 	   31.7356
    0.2213 	    3.5245 	    5.0000 	    8.0000 	   31.9456
    0.4044 	    3.5763 	    5.0000 	    8.0000 	   32.1526
    0.2670 	    3.6300 	    5.0000 	    8.0000 	   32.3676
    0.2518 	    3.6885 	    5.0000 	    8.0000 	   32.6017
    0.1602 	    3.7470 	    5.0000 	    8.0000 	   32.8357
    0.3891 	    3.7985 	    5.0000 	    8.0000 	   33.0417
    0.2213 	    3.8500 	    5.0000 	    8.0000 	   33.2477
    0.3281 	    3.9063 	    5.0000 	    8.0000 	   33.4727
    0.5112 	    3.9653 	    5.0000 	    8.0000 	   33.7087
    0.4501 	    4.0250 	    5.0000 	    8.0000 	   33.9477
    0.2060 	    4.0773 	    5.0000 	    8.0000 	   34.1567
    0.2670 	    4.1305 	    5.0000 	    8.0000 	   34.3698
    0.2976 	    4.1892 	    5.0000 	    8.0000 	   34.6048
    0.3738 	    4.2495 	    5.0000 	    8.0000 	   34.8458
    0.4196 	    4.3058 	    5.0000 	    8.0000 	   35.0708
    0.1907 	    4.3593 	    5.0000 	    8.0000 	   35.2848
    0.4654 	    4.4188 	    5.0000 	    8.0000 	   35.5228
    0.1144 	    4.4763 	    5.0000 	    8.0000 	   35.7528
    0.2365 	    4.5347 	    5.0000 	    8.0000 	   35.9868
    0.3128 	    4.5880 	    5.0000 	    8.0000 	   36.1999
    0.2365 	    4.6448 	    5.0000 	    8.0000 	   36.4269
    0.4044 	    4.7033 	    5.0000 	    8.0000 	   36.6609
    0.3128 	    4.7640 	    5.0000 	    8.0000 	   36.9039
    0.3128 	    4.8208 	    5.0000 	    8.0000 	   37.1309
    0.2976 	    4.8755 	    5.0000 	    8.0000 	   37.3499
    0.2823 	    4.9308 	    5.0000 	    8.0000 	   37.5709
    0.4196 	    4.9903 	    5.0000 	    8.0000 	   37.8089
    0.3281 	    5.0478 	    5.0000 	    8.0000 	   38.0390
    0.4349 	    5.1010 	    5.0000 	    8.0000 	   38.2520
    0.3128 	    5.1593 	    5.0000 	    8.0000 	   38.4850
    0.4501 	    5.2198 	    5.0000 	    8.0000 	   38.7270
    0.3738 	    5.2790 	    5.0000 	    8.0000 	   38.9640
    0.4654 	    5.3353 	    5.0000 	    8.0000 	   39.1890
    0.2670 	    5.3938 	    5.0000 	    8.0000 	   39.4230
    0.3891 	    5.4540 	    5.0000 	    8.0000 	   39.6641
    0.3128 	    5.5123 	    5.0000 	    8.0000 	   39.8971
    0.3738 	    5.5695 	    5.0000 	    8.0000 	   40.1261
    0.2976 	    5.6233 	    5.0000 	    8.0000 	   40.3411
    0.2670 	    5.6813 	    5.0000 	    8.0000 	   40.5731
    0.2823 	    5.7403 	    5.0000 	    8.0000 	   40.8091
    0.3738 	    5.7980 	    5.0000 	    8.0000 	   41.0401
    0.3433 	    5.8528 	    5.0000 	    8.0000 	   41.2591
    0.2365 	    5.9103 	    5.0000 	    8.0000 	   41.4892
    0.2365 	    5.9693 	    5.0000 	    8.0000 	   41.7252
    0.4807 	    6.0308 	    5.0000 	    8.0000 	   41.9712
    0.3433 	    6.0890 	    5.0000 	    8.0000 	   42.2032
    0.2976 	    6.1450 	    5.0000 	    8.0000 	   42.4282
    0.4044 	    6.2063 	    5.0000 	    8.0000 	   42.6732
    0.4654 	    6.2688 	    5.0000 	    8.0000 	   42.9232
    0.4501 	    6.3250 	    5.0000 	    8.0000 	   43.1483
    0.4807 	    6.3778 	    5.0000 	    8.0000 	   43.3583
    0.4654 	    6.4350 	    5.0000 	    8.0000 	   43.5873
    0.4044 	    6.4950 	    5.0000 	    8.0000 	   43.8273
    0.4654 	    6.5538 	    5.0000 	    8.0000 	   44.0623
    0.5112 	    6.6080 	    5.0000 	    8.0000 	   44.2793
    0.4654 	    6.6683 	    5.0000 	    8.0000 	   44.5203
    0.4044 	    6.7308 	    5.0000 	    8.0000 	   44.7703
    0.3738 	    6.7930 	    5.0000 	    8.0000 	   45.0194
    0.3891 	    6.8495 	    5.0000 	    8.0000 	   45.2454
    0.5875 	    6.9100 	    5.0000 	    8.0000 	   45.4874
    0.3738 	    6.9720 	    5.0000 	    8.0000 	   45.7354
    0.3433 	    7.0353 	    5.0000 	    8.0000 	   45.9884
    0.3738 	    7.0923 	    5.0000 	    8.0000 	   46.2164
    0.3738 	    7.1510 	    5.0000 	    8.0000 	   46.4514
    0.4044 	    7.2123 	    5.0000 	    8.0000 	   46.6965
    0.4654 	    7.2763 	    5.0000 	    8.0000 	   46.9525
    0.3586 	    7.3355 	    5.0000 	    8.0000 	   47.1895
    0.4959 	    7.3935 	    5.0000 	    8.0000 	   47.4215
    0.2365 	    7.4583 	    5.0000 	    8.0000 	   47.6805
    0.3586 	    7.5210 	    5.0000 	    8.0000 	   47.9315
    0.6638 	    7.5795 	    5.0000 	    8.0000 	   48.1655
    0.3891 	    7.6380 	    5.0000 	    8.0000 	   48.3996
    0.3738 	    7.7013 	    5.0000 	    8.0000 	   48.6526
    0.3433 	    7.7658 	    5.0000 	    8.0000 	   48.9106
    0.4654 	    7.8278 	    5.0000 	    8.0000 	   49.1586
    0.4349 	    7.8888 	    5.0000 	    8.0000 	   49.4026
    0.5112 	    7.9518 	    5.0000 	    8.0000 	   49.6546
    0.3586 	    8.0143 	    5.0000 	    8.0000 	   49.9046
    0.4349 	    8.0718 	    5.0000 	    8.0000 	   50.1347
    0.3738 	    8.1302 	    5.0000 	    8.0000 	   50.3687
    0.3738 	    8.1918 	    5.0000 	    8.0000 	   50.6147
    0.4654 	    8.2543 	    5.0000 	    8.0000 	   50.8647
    0.3738 	    8.3168 	    5.0000 	    8.0000 	   51.1147
    0.4196 	    8.3775 	    5.0000 	    8.0000 	   51.3577
    0.3738 	    8.4438 	    5.0000 	    8.0000 	   51.6227
    0.5112 	    8.5055 	    5.0000 	    8.0000 	   51.8698
    0.4959 	    8.5683 	    5.0000 	    8.0000 	   52.1208
    0.2060 	    8.6295 	    5.0000 	    8.0000 	   52.3658
    0.1297 	    8.6938 	    5.0000 	    8.0000 	   52.6228
    0.4501 	    8.7573 	    5.0000 	    8.0000 	   52.8768
    0.4807 	    8.8203 	    5.0000 	    8.0000 	   53.1288
    0.4807 	    8.8780 	    5.0000 	    8.0000 	   53.3598
    0.4501 	    8.9400 	    5.0000 	    8.0000 	   53.6078
    0.1144 	    9.0058 	    5.0000 	    8.0000 	   53.8709
    0.4654 	    9.0698 	    5.0000 	    8.0000 	   54.1269
    0.6180 	    9.1290 	    5.0000 	    8.0000 	   54.3639
    0.7248 	    9.1915 	    5.0000 	    8.0000 	   54.6139
    0.4349 	    9.2568 	    5.0000 	    8.0000 	   54.8749
    0.5570 	    9.3198 	    5.0000 	    8.0000 	   55.1269
    0.5112 	    9.3802 	    5.0000 	    8.0000 	   55.3689
    0.4196 	    9.4463 	    5.0000 	    8.0000 	   55.6330
    0.3433 	    9.5140 	    5.0000 	    8.0000 	   55.9040
    0.4501 	    9.5738 	    5.0000 	    8.0000 	   56.1430
    0.5264 	    9.6325 	    5.0000 	    8.0000 	   56.3780
    0.6790 	    9.6960 	    5.0000 	    8.0000 	   56.6320
    0.5112 	    9.7555 	    5.0000 	    8.0000 	   56.8700
    0.5417 	    9.8150 	    5.0000 	    8.0000 	   57.1081
    0.4349 	    9.8755 	    5.0000 	    8.0000 	   57.3501
    0.4654 	    9.9410 	    5.0000 	    8.0000 	   57.6121
    0.4654 	   10.0025 	    5.0000 	    8.0000 	   57.8581
    0.4959 	   10.0653 	    5.0000 	    8.0000 	   58.1091
    0.6180 	   10.1243 	    5.0000 	    8.0000 	   58.3451
    0.4501 	   10.1908 	    5.0000 	    8.0000 	   58.6111
    0.5112 	   10.2548 	    5.0000 	    8.0000 	   58.8672
    0.4196 	   10.3180 	    5.0000 	    8.0000 	   59.1202
    0.6027 	   10.3798 	    5.0000 	    8.0000 	   59.3672
    0.3128 	   10.4465 	    5.0000 	    8.0000 	   59.6342
    0.5417 	   10.5063 	    5.0000 	    8.0000 	   59.8732
    0.4654 	   10.5663 	    5.0000 	    9.0000 	    0.1132
    0.4654 	   10.6263 	    5.0000 	    9.0000 	    0.3532
    0.4959 	   10.6900 	    5.0000 	    9.0000 	    0.6083
    0.5570 	   10.7503 	    5.0000 	    9.0000 	    0.8483
    0.5112 	   10.8123 	    5.0000 	    9.0000 	    1.0963
    0.4654 	   10.8733 	    5.0000 	    9.0000 	    1.3403
    0.6485 	   10.9355 	    5.0000 	    9.0000 	    1.5893
    0.5264 	   10.9955 	    5.0000 	    9.0000 	    1.8293
    0.4196 	   11.0573 	    5.0000 	    9.0000 	    2.0763
    0.3891 	   11.1170 	    5.0000 	    9.0000 	    2.3153
    0.5417 	   11.1813 	    5.0000 	    9.0000 	    2.5724
    0.5417 	   11.2498 	    5.0000 	    9.0000 	    2.8464
    0.4501 	   11.3110 	    5.0000 	    9.0000 	    3.0914
    0.6485 	   11.3710 	    5.0000 	    9.0000 	    3.3314
    0.5570 	   11.4395 	    5.0000 	    9.0000 	    3.6054
    0.5112 	   11.5048 	    5.0000 	    9.0000 	    3.8664
    0.4654 	   11.5668 	    5.0000 	    9.0000 	    4.1145
    0.4807 	   11.6303 	    5.0000 	    9.0000 	    4.3685
    0.5417 	   11.6983 	    5.0000 	    9.0000 	    4.6405
    0.1907 	   11.7655 	    5.0000 	    9.0000 	    4.9095
    0.6180 	   11.8285 	    5.0000 	    9.0000 	    5.1615
    0.5417 	   11.8918 	    5.0000 	    9.0000 	    5.4145
    0.6638 	   11.9585 	    5.0000 	    9.0000 	    5.6815
    0.3281 	   12.0220 	    5.0000 	    9.0000 	    5.9356
    0.4349 	   12.0855 	    5.0000 	    9.0000 	    6.1896
    0.5722 	   12.1460 	    5.0000 	    9.0000 	    6.4316
    0.4959 	   12.2088 	    5.0000 	    9.0000 	    6.6826
    0.4959 	   12.2728 	    5.0000 	    9.0000 	    6.9386
    0.6180 	   12.3390 	    5.0000 	    9.0000 	    7.2036
    0.6180 	   12.4005 	    5.0000 	    9.0000 	    7.4496
    0.6180 	   12.4638 	    5.0000 	    9.0000 	    7.7027
    0.5722 	   12.5278 	    5.0000 	    9.0000 	    7.9587
    0.6027 	   12.5928 	    5.0000 	    9.0000 	    8.2187
    0.5875 	   12.6580 	    5.0000 	    9.0000 	    8.4797
    0.3891 	   12.7238 	    5.0000 	    9.0000 	    8.7427
    0.5417 	   12.7883 	    5.0000 	    9.0000 	    9.0007
    0.5722 	   12.8560 	    5.0000 	    9.0000 	    9.2717
    0.6180 	   12.9203 	    5.0000 	    9.0000 	    9.5288
    0.4807 	   12.9860 	    5.0000 	    9.0000 	    9.7918
    0.4959 	   13.0555 	    5.0000 	    9.0000 	   10.0698
    0.5570 	   13.1198 	    5.0000 	    9.0000 	   10.3268
    0.4044 	   13.1853 	    5.0000 	    9.0000 	   10.5888
    0.6180 	   13.2553 	    5.0000 	    9.0000 	   10.8688
    0.4044 	   13.3253 	    5.0000 	    9.0000 	   11.1489
    0.6027 	   13.3893 	    5.0000 	    9.0000 	   11.4049
    0.5417 	   13.4598 	    5.0000 	    9.0000 	   11.6869
    0.4349 	   13.5298 	    5.0000 	    9.0000 	   11.9669
    0.5722 	   13.5948 	    5.0000 	    9.0000 	   12.2269
    0.4196 	   13.6595 	    5.0000 	    9.0000 	   12.4859
    0.3586 	   13.7305 	    5.0000 	    9.0000 	   12.7699
    0.4654 	   13.8015 	    5.0000 	    9.0000 	   13.0540
    0.5264 	   13.8680 	    5.0000 	    9.0000 	   13.3200
    0.4959 	   13.9378 	    5.0000 	    9.0000 	   13.5990
    0.6638 	   14.0073 	    5.0000 	    9.0000 	   13.8770
    0.5570 	   14.0773 	    5.0000 	    9.0000 	   14.1570
    0.4959 	   14.1410 	    5.0000 	    9.0000 	   14.4120
    0.6180 	   14.2095 	    5.0000 	    9.0000 	   14.6861
    0.5264 	   14.2815 	    5.0000 	    9.0000 	   14.9741
    0.6485 	   14.3518 	    5.0000 	    9.0000 	   15.2551
    0.5570 	   14.4185 	    5.0000 	    9.0000 	   15.5221
    0.5417 	   14.4825 	    5.0000 	    9.0000 	   15.7781
    0.6943 	   14.5483 	    5.0000 	    9.0000 	   16.0411
    0.5875 	   14.6125 	    5.0000 	    9.0000 	   16.2981
    0.4959 	   14.6813 	    5.0000 	    9.0000 	   16.5732
    0.5112 	   14.7475 	    5.0000 	    9.0000 	   16.8382
    0.6332 	   14.8150 	    5.0000 	    9.0000 	   17.1082
    0.7401 	   14.8813 	    5.0000 	    9.0000 	   17.3732
    0.5722 	   14.9490 	    5.0000 	    9.0000 	   17.6442
    0.6180 	   15.0193 	    5.0000 	    9.0000 	   17.9252
    0.6332 	   15.0890 	    5.0000 	    9.0000 	   18.2033
    0.2976 	   15.1530 	    5.0000 	    9.0000 	   18.4593
    0.5570 	   15.2195 	    5.0000 	    9.0000 	   18.7253
    0.5722 	   15.2868 	    5.0000 	    9.0000 	   18.9943
    0.6180 	   15.3558 	    5.0000 	    9.0000 	   19.2693
    0.6638 	   15.4230 	    5.0000 	    9.0000 	   19.5393
    0.5875 	   15.4923 	    5.0000 	    9.0000 	   19.8163
    0.7858 	   15.5650 	    5.0000 	    9.0000 	   20.1074
    0.5570 	   15.6328 	    5.0000 	    9.0000 	   20.3784
    0.3433 	   15.7025 	    5.0000 	    9.0000 	   20.6574
    0.6943 	   15.7758 	    5.0000 	    9.0000 	   20.9504
    0.6485 	   15.8498 	    5.0000 	    9.0000 	   21.2464
    0.8316 	   15.9178 	    5.0000 	    9.0000 	   21.5184
    0.3738 	   15.9848 	    5.0000 	    9.0000 	   21.7865
    0.7095 	   16.0503 	    5.0000 	    9.0000 	   22.0485
    0.5112 	   16.1170 	    5.0000 	    9.0000 	   22.3155
    0.5722 	   16.1820 	    5.0000 	    9.0000 	   22.5755
    0.4959 	   16.2465 	    5.0000 	    9.0000 	   22.8335
    0.7401 	   16.3115 	    5.0000 	    9.0000 	   23.0935
    0.6485 	   16.3787 	    5.0000 	    9.0000 	   23.3626
    0.7248 	   16.4463 	    5.0000 	    9.0000 	   23.6326
    0.5875 	   16.5195 	    5.0000 	    9.0000 	   23.9256
    0.7095 	   16.5913 	    5.0000 	    9.0000 	   24.2126
    0.6180 	   16.6597 	    5.0000 	    9.0000 	   24.4866
    0.7553 	   16.7343 	    5.0000 	    9.0000 	   24.7846
    0.6943 	   16.8083 	    5.0000 	    9.0000 	   25.0807
    0.5875 	   16.8793 	    5.0000 	    9.0000 	   25.3647
    0.5875 	   16.9490 	    5.0000 	    9.0000 	   25.6437
    0.4501 	   17.0220 	    5.0000 	    9.0000 	   25.9357
    0.6332 	   17.0928 	    5.0000 	    9.0000 	   26.2187
    0.6332 	   17.1593 	    5.0000 	    9.0000 	   26.4847
    0.4501 	   17.2283 	    5.0000 	    9.0000 	   26.7607
    0.6790 	   17.2973 	    5.0000 	    9.0000 	   27.0368
    0.7858 	   17.3680 	    5.0000 	    9.0000 	   27.3198
    0.7858 	   17.4380 	    5.0000 	    9.0000 	   27.5998
    0.6790 	   17.5115 	    5.0000 	    9.0000 	   27.8938
    0.6485 	   17.5798 	    5.0000 	    9.0000 	   28.1668
    0.6943 	   17.6490 	    5.0000 	    9.0000 	   28.4438
    0.7858 	   17.7160 	    5.0000 	    9.0000 	   28.7119
    0.4196 	   17.7830 	    5.0000 	    9.0000 	   28.9799
    0.8011 	   17.8550 	    5.0000 	    9.0000 	   29.2679
    0.6180 	   17.9230 	    5.0000 	    9.0000 	   29.5399
    0.7401 	   17.9978 	    5.0000 	    9.0000 	   29.8389
    0.8011 	   18.0705 	    5.0000 	    9.0000 	   30.1299
    0.6638 	   18.1393 	    5.0000 	    9.0000 	   30.4050
    0.8316 	   18.2068 	    5.0000 	    9.0000 	   30.6750
    0.7401 	   18.2820 	    5.0000 	    9.0000 	   30.9760
    0.8469 	   18.3563 	    5.0000 	    9.0000 	   31.2730
    0.6485 	   18.4245 	    5.0000 	    9.0000 	   31.5460
    0.6180 	   18.4930 	    5.0000 	    9.0000 	   31.8200
    0.7095 	   18.5698 	    5.0000 	    9.0000 	   32.1271
    0.7248 	   18.6423 	    5.0000 	    9.0000 	   32.4171
    0.7401 	   18.7140 	    5.0000 	    9.0000 	   32.7041
    0.8164 	   18.7895 	    5.0000 	    9.0000 	   33.0061
    0.6485 	   18.8640 	    5.0000 	    9.0000 	   33.3041
    0.7248 	   18.9335 	    5.0000 	    9.0000 	   33.5821
    0.6943 	   19.0048 	    5.0000 	    9.0000 	   33.8672
    0.6027 	   19.0803 	    5.0000 	    9.0000 	   34.1692
    0.7553 	   19.1508 	    5.0000 	    9.0000 	   34.4512
    0.8164 	   19.2233 	    5.0000 	    9.0000 	   34.7412
    0.4807 	   19.2965 	    5.0000 	    9.0000 	   35.0342
    0.7401 	   19.3713 	    5.0000 	    9.0000 	   35.3332
    0.6485 	   19.4428 	    5.0000 	    9.0000 	   35.6183
    0.6943 	   19.5133 	    5.0000 	    9.0000 	   35.9003
    0.7401 	   19.5845 	    5.0000 	    9.0000 	   36.1853
    0.8011 	   19.6543 	    5.0000 	    9.0000 	   36.4643
    0.8011 	   19.7283 	    5.0000 	    9.0000 	   36.7603
    0.7553 	   19.8045 	    5.0000 	    9.0000 	   37.0653
    0.6790 	   19.8768 	    5.0000 	    9.0000 	   37.3544
    0.7706 	   19.9460 	    5.0000 	    9.0000 	   37.6314
    0.7401 	   20.0205 	    5.0000 	    9.0000 	   37.9294
    0.8316 	   20.0965 	    5.0000 	    9.0000 	   38.2334
    0.4501 	   20.1668 	    5.0000 	    9.0000 	   38.5144
    0.7553 	   20.2433 	    5.0000 	    9.0000 	   38.8204
    0.6027 	   20.3145 	    5.0000 	    9.0000 	   39.1055
    0.8927 	   20.3860 	    5.0000 	    9.0000 	   39.3915
    0.8011 	   20.4555 	    5.0000 	    9.0000 	   39.6695
    0.7706 	   20.5305 	    5.0000 	    9.0000 	   39.9695
    0.8316 	   20.6060 	    5.0000 	    9.0000 	   40.2715
    0.7095 	   20.6765 	    5.0000 	    9.0000 	   40.5535
    0.7401 	   20.7503 	    5.0000 	    9.0000 	   40.8486
    0.7095 	   20.8245 	    5.0000 	    9.0000 	   41.1456
    0.8164 	   20.8948 	    5.0000 	    9.0000 	   41.4266
    0.8621 	   20.9645 	    5.0000 	    9.0000 	   41.7056
    0.8927 	   21.0383 	    5.0000 	    9.0000 	   42.0006
    0.7095 	   21.1128 	    5.0000 	    9.0000 	   42.2986
    0.5112 	   21.1853 	    5.0000 	    9.0000 	   42.5887
    0.9232 	   21.2630 	    5.0000 	    9.0000 	   42.8997
    0.8011 	   21.3405 	    5.0000 	    9.0000 	   43.2097
    0.7095 	   21.4113 	    5.0000 	    9.0000 	   43.4927
    0.8164 	   21.4893 	    5.0000 	    9.0000 	   43.8047
    0.8011 	   21.5648 	    5.0000 	    9.0000 	   44.1067
    0.6943 	   21.6360 	    5.0000 	    9.0000 	   44.3918
    0.5570 	   21.7053 	    5.0000 	    9.0000 	   44.6688
    0.8316 	   21.7830 	    5.0000 	    9.0000 	   44.9798
    0.8621 	   21.8608 	    5.0000 	    9.0000 	   45.2908
    0.8011 	   21.9320 	    5.0000 	    9.0000 	   45.5758
    0.7706 	   22.0023 	    5.0000 	    9.0000 	   45.8568
    0.8469 	   22.0820 	    5.0000 	    9.0000 	   46.1759
    0.8621 	   22.1553 	    5.0000 	    9.0000 	   46.4689
    0.7858 	   22.2248 	    5.0000 	    9.0000 	   46.7469
    0.8927 	   22.2993 	    5.0000 	    9.0000 	   47.0449
    0.8621 	   22.3700 	    5.0000 	    9.0000 	   47.3279
    0.8011 	   22.4405 	    5.0000 	    9.0000 	   47.6099
    0.8469 	   22.5125 	    5.0000 	    9.0000 	   47.8980
    0.7706 	   22.5853 	    5.0000 	    9.0000 	   48.1890
    0.7858 	   22.6573 	    5.0000 	    9.0000 	   48.4770
    0.8774 	   22.7305 	    5.0000 	    9.0000 	   48.7700
    0.8774 	   22.8065 	    5.0000 	    9.0000 	   49.0740
    0.7706 	   22.8780 	    5.0000 	    9.0000 	   49.3600
    0.8927 	   22.9508 	    5.0000 	    9.0000 	   49.6511
    0.7553 	   23.0298 	    5.0000 	    9.0000 	   49.9671
    0.8011 	   23.1045 	    5.0000 	    9.0000 	   50.2661
    0.8164 	   23.1778 	    5.0000 	    9.0000 	   50.5581
    0.7553 	   23.2505 	    5.0000 	    9.0000 	   50.8501
    0.6943 	   23.3225 	    5.0000 	    9.0000 	   51.1381
    0.7553 	   23.3950 	    5.0000 	    9.0000 	   51.4282
    0.7858 	   23.4675 	    5.0000 	    9.0000 	   51.7182
    0.8621 	   23.5428 	    5.0000 	    9.0000 	   52.0192
    0.7553 	   23.6205 	    5.0000 	    9.0000 	   52.3302
    0.8469 	   23.6925 	    5.0000 	    9.0000 	   52.6182
    0.9232 	   23.7653 	    5.0000 	    9.0000 	   52.9092
    0.7553 	   23.8380 	    5.0000 	    9.0000 	   53.1993
    0.7858 	   23.9128 	    5.0000 	    9.0000 	   53.4983
    0.9842 	   23.9875 	    5.0000 	    9.0000 	   53.7973
    0.8621 	   24.0605 	    5.0000 	    9.0000 	   54.0893
    0.9232 	   24.1328 	    5.0000 	    9.0000 	   54.3783
    1.0147 	   24.2065 	    5.0000 	    9.0000 	   54.6733
    0.7401 	   24.2810 	    5.0000 	    9.0000 	   54.9714
    0.8469 	   24.3583 	    5.0000 	    9.0000 	   55.2804
    0.8164 	   24.4330 	    5.0000 	    9.0000 	   55.5794
    0.8621 	   24.5105 	    5.0000 	    9.0000 	   55.8894
    0.9384 	   24.5888 	    5.0000 	    9.0000 	   56.2024
    0.7706 	   24.6643 	    5.0000 	    9.0000 	   56.5044
    0.8011 	   24.7380 	    5.0000 	    9.0000 	   56.7995
    0.9842 	   24.8113 	    5.0000 	    9.0000 	   57.0925
    0.9842 	   24.8843 	    5.0000 	    9.0000 	   57.3845
    0.6332 	   24.9618 	    5.0000 	    9.0000 	   57.6945
    0.9384 	   25.0413 	    5.0000 	    9.0000 	   58.0125
    0.9079 	   25.1183 	    5.0000 	    9.0000 	   58.3206
    0.9079 	   25.1920 	    5.0000 	    9.0000 	   58.6156
    0.9079 	   25.2655 	    5.0000 	    9.0000 	   58.9096
    0.9384 	   25.3428 	    5.0000 	    9.0000 	   59.2186
    0.9842 	   25.4185 	    5.0000 	    9.0000 	   59.5216
    1.0452 	   25.4935 	    5.0000 	    9.0000 	   59.8216
    0.9384 	   25.5695 	    5.0000 	   10.0000 	    0.1257
    0.9842 	   25.6460 	    5.0000 	   10.0000 	    0.4317
    0.8774 	   25.7230 	    5.0000 	   10.0000 	    0.7397
    0.9842 	   25.8020 	    5.0000 	   10.0000 	    1.0557
    0.9384 	   25.8803 	    5.0000 	   10.0000 	    1.3687
    0.9537 	   25.9535 	    5.0000 	   10.0000 	    1.6617
    0.8164 	   26.0298 	    5.0000 	   10.0000 	    1.9668
    0.7553 	   26.1078 	    5.0000 	   10.0000 	    2.2788
    0.8469 	   26.1823 	    5.0000 	   10.0000 	    2.5768
    0.8927 	   26.2605 	    5.0000 	   10.0000 	    2.8898
    1.0300 	   26.3358 	    5.0000 	   10.0000 	    3.1908
    0.8164 	   26.4138 	    5.0000 	   10.0000 	    3.5028
    0.9079 	   26.4888 	    5.0000 	   10.0000 	    3.8029
    0.9384 	   26.5688 	    5.0000 	   10.0000 	    4.1229
    0.9995 	   26.6470 	    5.0000 	   10.0000 	    4.4359
    0.8011 	   26.7220 	    5.0000 	   10.0000 	    4.7359
    0.8774 	   26.7998 	    5.0000 	   10.0000 	    5.0469
    1.0605 	   26.8770 	    5.0000 	   10.0000 	    5.3560
    0.9232 	   26.9508 	    5.0000 	   10.0000 	    5.6510
    0.8621 	   27.0298 	    5.0000 	   10.0000 	    5.9670
    0.9537 	   27.1068 	    5.0000 	   10.0000 	    6.2750
    1.0147 	   27.1825 	    5.0000 	   10.0000 	    6.5780
    1.0605 	   27.2630 	    5.0000 	   10.0000 	    6.9000
    1.1215 	   27.3455 	    5.0000 	   10.0000 	    7.2301
    1.0452 	   27.4238 	    5.0000 	   10.0000 	    7.5431
    1.0910 	   27.5025 	    5.0000 	   10.0000 	    7.8581
    1.0758 	   27.5803 	    5.0000 	   10.0000 	    8.1691
    0.9537 	   27.6550 	    5.0000 	   10.0000 	    8.4681
    1.0910 	   27.7273 	    5.0000 	   10.0000 	    8.7571
    0.9384 	   27.8035 	    5.0000 	   10.0000 	    9.0622
    0.9842 	   27.8845 	    5.0000 	   10.0000 	    9.3862
    1.1063 	   27.9598 	    5.0000 	   10.0000 	    9.6872
    0.8927 	   28.0380 	    5.0000 	   10.0000 	   10.0002
    0.9079 	   28.1200 	    5.0000 	   10.0000 	   10.3282
    0.9689 	   28.1965 	    5.0000 	   10.0000 	   10.6333
    1.0147 	   28.2735 	    5.0000 	   10.0000 	   10.9413
    0.9995 	   28.3500 	    5.0000 	   10.0000 	   11.2473
    0.9232 	   28.4268 	    5.0000 	   10.0000 	   11.5543
    0.9689 	   28.5048 	    5.0000 	   10.0000 	   11.8663
    0.9232 	   28.5828 	    5.0000 	   10.0000 	   12.1783
    1.0605 	   28.6625 	    5.0000 	   10.0000 	   12.4974
    0.6485 	   28.7368 	    5.0000 	   10.0000 	   12.7944
    1.0300 	   28.8108 	    5.0000 	   10.0000 	   13.0904
    1.0452 	   28.8843 	    5.0000 	   10.0000 	   13.3844
    0.9842 	   28.9595 	    5.0000 	   10.0000 	   13.6854
    0.9842 	   29.0380 	    5.0000 	   10.0000 	   13.9994
    1.0452 	   29.1163 	    5.0000 	   10.0000 	   14.3125
    0.6943 	   29.1933 	    5.0000 	   10.0000 	   14.6205
    1.0910 	   29.2693 	    5.0000 	   10.0000 	   14.9245
    0.9079 	   29.3460 	    5.0000 	   10.0000 	   15.2315
    1.1521 	   29.4260 	    5.0000 	   10.0000 	   15.5515
    0.9995 	   29.5018 	    5.0000 	   10.0000 	   15.8546
    0.9842 	   29.5828 	    5.0000 	   10.0000 	   16.1786
    0.9995 	   29.6648 	    5.0000 	   10.0000 	   16.5066
    0.6790 	   29.7425 	    5.0000 	   10.0000 	   16.8176
    0.9995 	   29.8223 	    5.0000 	   10.0000 	   17.1366
    0.9384 	   29.9000 	    5.0000 	   10.0000 	   17.4476
    1.0758 	   29.9765 	    5.0000 	   10.0000 	   17.7537
    0.9995 	   30.0558 	    5.0000 	   10.0000 	   18.0707
    1.1215 	   30.1330 	    5.0000 	   10.0000 	   18.3797
    1.1521 	   30.2108 	    5.0000 	   10.0000 	   18.6907
    1.0147 	   30.2880 	    5.0000 	   10.0000 	   18.9997
    1.1215 	   30.3685 	    5.0000 	   10.0000 	   19.3218
    0.9842 	   30.4465 	    5.0000 	   10.0000 	   19.6338
    1.0300 	   30.5250 	    5.0000 	   10.0000 	   19.9478
    0.9537 	   30.6083 	    5.0000 	   10.0000 	   20.2808
    0.9995 	   30.6880 	    5.0000 	   10.0000 	   20.5998
    1.1215 	   30.7655 	    5.0000 	   10.0000 	   20.9098
    0.9995 	   30.8428 	    5.0000 	   10.0000 	   21.2189
    1.0910 	   30.9218 	    5.0000 	   10.0000 	   21.5349
    1.0300 	   31.0013 	    5.0000 	   10.0000 	   21.8529
    0.9842 	   31.0785 	    5.0000 	   10.0000 	   22.1619
    1.0147 	   31.1570 	    5.0000 	   10.0000 	   22.4759
    0.8927 	   31.2355 	    5.0000 	   10.0000 	   22.7900
    1.0147 	   31.3153 	    5.0000 	   10.0000 	   23.1090
    0.9537 	   31.3930 	    5.0000 	   10.0000 	   23.4200
    1.0605 	   31.4703 	    5.0000 	   10.0000 	   23.7290
    1.0452 	   31.5515 	    5.0000 	   10.0000 	   24.0530
    0.9995 	   31.6310 	    5.0000 	   10.0000 	   24.3720
    0.9995 	   31.7098 	    5.0000 	   10.0000 	   24.6871
    0.8621 	   31.7893 	    5.0000 	   10.0000 	   25.0051
    0.8927 	   31.8695 	    5.0000 	   10.0000 	   25.3261
    0.8621 	   31.9510 	    5.0000 	   10.0000 	   25.6521
    0.9689 	   32.0330 	    5.0000 	   10.0000 	   25.9801
    0.9995 	   32.1150 	    5.0000 	   10.0000 	   26.3082
    0.9537 	   32.1973 	    5.0000 	   10.0000 	   26.6372
    0.9232 	   32.2720 	    5.0000 	   10.0000 	   26.9362
    0.8927 	   32.3505 	    5.0000 	   10.0000 	   27.2502
    0.9232 	   32.4313 	    5.0000 	   10.0000 	   27.5732
    0.6638 	   32.5110 	    5.0000 	   10.0000 	   27.8922
    0.8316 	   32.5925 	    5.0000 	   10.0000 	   28.2173
    1.0300 	   32.6710 	    5.0000 	   10.0000 	   28.5313
    0.9689 	   32.7508 	    5.0000 	   10.0000 	   28.8503
    1.0605 	   32.8310 	    5.0000 	   10.0000 	   29.1713
    0.6027 	   32.9145 	    5.0000 	   10.0000 	   29.5053
    1.0758 	   32.9965 	    5.0000 	   10.0000 	   29.8334
    0.8927 	   33.0765 	    5.0000 	   10.0000 	   30.1534
    0.8164 	   33.1567 	    5.0000 	   10.0000 	   30.4744
    0.7401 	   33.2385 	    5.0000 	   10.0000 	   30.8014
    0.8774 	   33.3168 	    5.0000 	   10.0000 	   31.1144
    0.8927 	   33.3975 	    5.0000 	   10.0000 	   31.4374
    0.9232 	   33.4790 	    5.0000 	   10.0000 	   31.7635
    1.0452 	   33.5645 	    5.0000 	   10.0000 	   32.1055
    0.9232 	   33.6480 	    5.0000 	   10.0000 	   32.4395
    0.6332 	   33.7265 	    5.0000 	   10.0000 	   32.7535
    0.7858 	   33.8090 	    5.0000 	   10.0000 	   33.0835
    0.8011 	   33.8895 	    5.0000 	   10.0000 	   33.4056
    0.8469 	   33.9710 	    5.0000 	   10.0000 	   33.7316
    0.9995 	   34.0510 	    5.0000 	   10.0000 	   34.0516
    0.9384 	   34.1300 	    5.0000 	   10.0000 	   34.3676
    0.9079 	   34.2105 	    5.0000 	   10.0000 	   34.6896
    0.9384 	   34.2900 	    5.0000 	   10.0000 	   35.0077
    0.6638 	   34.3708 	    5.0000 	   10.0000 	   35.3307
    0.8011 	   34.4563 	    5.0000 	   10.0000 	   35.6727
    0.8164 	   34.5393 	    5.0000 	   10.0000 	   36.0047
    0.8621 	   34.6205 	    5.0000 	   10.0000 	   36.3297
    0.7553 	   34.7050 	    5.0000 	   10.0000 	   36.6677
    0.6638 	   34.7835 	    5.0000 	   10.0000 	   36.9818
    0.8469 	   34.8655 	    5.0000 	   10.0000 	   37.3098
    0.8774 	   34.9453 	    5.0000 	   10.0000 	   37.6288
    0.7858 	   35.0285 	    5.0000 	   10.0000 	   37.9618
    0.7401 	   35.1105 	    5.0000 	   10.0000 	   38.2898
    0.8011 	   35.1918 	    5.0000 	   10.0000 	   38.6149
    0.9079 	   35.2723 	    5.0000 	   10.0000 	   38.9369
    0.6332 	   35.3570 	    5.0000 	   10.0000 	   39.2759
    0.5570 	   35.4418 	    5.0000 	   10.0000 	   39.6149
    0.8774 	   35.5223 	    5.0000 	   10.0000 	   39.9369
    0.9232 	   35.6045 	    5.0000 	   10.0000 	   40.2660
    0.7401 	   35.6860 	    5.0000 	   10.0000 	   40.5920
    0.5722 	   35.7670 	    5.0000 	   10.0000 	   40.9160
    0.8011 	   35.8533 	    5.0000 	   10.0000 	   41.2610
    0.7401 	   35.9348 	    5.0000 	   10.0000 	   41.5870
    0.8469 	   36.0163 	    5.0000 	   10.0000 	   41.9130
    0.6638 	   36.0978 	    5.0000 	   10.0000 	   42.2391
    0.7248 	   36.1798 	    5.0000 	   10.0000 	   42.5671
    0.7095 	   36.2615 	    5.0000 	   10.0000 	   42.8941
    0.6485 	   36.3435 	    5.0000 	   10.0000 	   43.2221
    0.8316 	   36.4258 	    5.0000 	   10.0000 	   43.5511
    0.8164 	   36.5120 	    5.0000 	   10.0000 	   43.8962
    0.9689 	   36.5973 	    5.0000 	   10.0000 	   44.2362
    0.7401 	   36.6790 	    5.0000 	   10.0000 	   44.5642
    0.7095 	   36.7590 	    5.0000 	   10.0000 	   44.8842
    0.7401 	   36.8410 	    5.0000 	   10.0000 	   45.2122
    0.7553 	   36.9228 	    5.0000 	   10.0000 	   45.5393
    0.7095 	   37.0065 	    5.0000 	   10.0000 	   45.8733
    0.7858 	   37.0898 	    5.0000 	   10.0000 	   46.2063
    0.6943 	   37.1723 	    5.0000 	   10.0000 	   46.5363
    0.7858 	   37.2535 	    5.0000 	   10.0000 	   46.8613
    0.6790 	   37.3385 	    5.0000 	   10.0000 	   47.2013
    0.6485 	   37.4208 	    5.0000 	   10.0000 	   47.5304
    0.6790 	   37.5028 	    5.0000 	   10.0000 	   47.8584
    0.5722 	   37.5883 	    5.0000 	   10.0000 	   48.2004
    0.7401 	   37.6702 	    5.0000 	   10.0000 	   48.5284
    0.6943 	   37.7525 	    5.0000 	   10.0000 	   48.8574
    0.7858 	   37.8360 	    5.0000 	   10.0000 	   49.1915
    0.7401 	   37.9220 	    5.0000 	   10.0000 	   49.5355
    0.8011 	   38.0063 	    5.0000 	   10.0000 	   49.8725
    0.6943 	   38.0913 	    5.0000 	   10.0000 	   50.2125
    0.9232 	   38.1793 	    5.0000 	   10.0000 	   50.5645
    0.9232 	   38.2615 	    5.0000 	   10.0000 	   50.8936
    0.7248 	   38.3498 	    5.0000 	   10.0000 	   51.2466
    0.5722 	   38.4338 	    5.0000 	   10.0000 	   51.5826
    0.6790 	   38.5180 	    5.0000 	   10.0000 	   51.9196
    0.6485 	   38.6000 	    5.0000 	   10.0000 	   52.2476
    0.7553 	   38.6835 	    5.0000 	   10.0000 	   52.5817
    0.7706 	   38.7693 	    5.0000 	   10.0000 	   52.9247
    0.7248 	   38.8568 	    5.0000 	   10.0000 	   53.2747
    0.5875 	   38.9463 	    5.0000 	   10.0000 	   53.6327
    0.4349 	   39.0328 	    5.0000 	   10.0000 	   53.9787
    0.5417 	   39.1205 	    5.0000 	   10.0000 	   54.3298
    0.6180 	   39.2075 	    5.0000 	   10.0000 	   54.6778
    0.6180 	   39.2938 	    5.0000 	   10.0000 	   55.0228
    0.7401 	   39.3778 	    5.0000 	   10.0000 	   55.3588
    0.6790 	   39.4613 	    5.0000 	   10.0000 	   55.6928
    0.7858 	   39.5470 	    5.0000 	   10.0000 	   56.0359
    0.6485 	   39.6305 	    5.0000 	   10.0000 	   56.3699
    0.6638 	   39.7180 	    5.0000 	   10.0000 	   56.7199
    0.5570 	   39.8028 	    5.0000 	   10.0000 	   57.0589
    0.5417 	   39.8875 	    5.0000 	   10.0000 	   57.3979
    0.5875 	   39.9740 	    5.0000 	   10.0000 	   57.7439
    0.5875 	   40.0608 	    5.0000 	   10.0000 	   58.0910
    0.6332 	   40.1508 	    5.0000 	   10.0000 	   58.4510
    0.8621 	   40.2383 	    5.0000 	   10.0000 	   58.8010
    0.6485 	   40.3240 	    5.0000 	   10.0000 	   59.1440
    0.5417 	   40.4093 	    5.0000 	   10.0000 	   59.4851
    0.4654 	   40.4968 	    5.0000 	   10.0000 	   59.8351
    0.6638 	   40.5813 	    5.0000 	   11.0000 	    0.1731
    0.7553 	   40.6683 	    5.0000 	   11.0000 	    0.5211
    0.6027 	   40.7533 	    5.0000 	   11.0000 	    0.8611
    0.6485 	   40.8393 	    5.0000 	   11.0000 	    1.2051
    0.5112 	   40.9308 	    5.0000 	   11.0000 	    1.5712
    0.4959 	   41.0188 	    5.0000 	   11.0000 	    1.9232
    0.7248 	   41.1103 	    5.0000 	   11.0000 	    2.2892
    0.5722 	   41.1975 	    5.0000 	   11.0000 	    2.6382
    0.3281 	   41.2833 	    5.0000 	   11.0000 	    2.9813
    0.6485 	   41.3713 	    5.0000 	   11.0000 	    3.3323
    0.7401 	   41.4585 	    5.0000 	   11.0000 	    3.6813
    0.6180 	   41.5460 	    5.0000 	   11.0000 	    4.0313
    0.5417 	   41.6348 	    5.0000 	   11.0000 	    4.3863
    0.4349 	   41.7223 	    5.0000 	   11.0000 	    4.7364
    0.5417 	   41.8098 	    5.0000 	   11.0000 	    5.0864
    0.6485 	   41.8968 	    5.0000 	   11.0000 	    5.4344
    0.5722 	   41.9845 	    5.0000 	   11.0000 	    5.7854
    0.7706 	   42.0703 	    5.0000 	   11.0000 	    6.1284
    0.4807 	   42.1555 	    5.0000 	   11.0000 	    6.4694
    0.6180 	   42.2430 	    5.0000 	   11.0000 	    6.8195
    0.5722 	   42.3295 	    5.0000 	   11.0000 	    7.1655
    0.5112 	   42.4158 	    5.0000 	   11.0000 	    7.5105
    0.5875 	   42.5020 	    5.0000 	   11.0000 	    7.8555
    0.6180 	   42.5873 	    5.0000 	   11.0000 	    8.1965
    0.6180 	   42.6728 	    5.0000 	   11.0000 	    8.5386
    0.4044 	   42.7613 	    5.0000 	   11.0000 	    8.8926
    0.5112 	   42.8498 	    5.0000 	   11.0000 	    9.2466
    0.5570 	   42.9420 	    5.0000 	   11.0000 	    9.6156
    0.5112 	   43.0313 	    5.0000 	   11.0000 	    9.9727
    0.7248 	   43.1173 	    5.0000 	   11.0000 	   10.3167
    0.5112 	   43.2030 	    5.0000 	   11.0000 	   10.6597
    0.4959 	   43.2898 	    5.0000 	   11.0000 	   11.0067
    0.4654 	   43.3813 	    5.0000 	   11.0000 	   11.3727
    0.1907 	   43.4705 	    5.0000 	   11.0000 	   11.7298
    0.6485 	   43.5608 	    5.0000 	   11.0000 	   12.0908
    0.4959 	   43.6485 	    5.0000 	   11.0000 	   12.4418
    0.5264 	   43.7365 	    5.0000 	   11.0000 	   12.7938
    0.5722 	   43.8233 	    5.0000 	   11.0000 	   13.1408
    0.5417 	   43.9135 	    5.0000 	   11.0000 	   13.5019
    0.6790 	   44.0040 	    5.0000 	   11.0000 	   13.8639
    0.6027 	   44.0928 	    5.0000 	   11.0000 	   14.2189
    0.2365 	   44.1803 	    5.0000 	   11.0000 	   14.5689
    0.4959 	   44.2685 	    5.0000 	   11.0000 	   14.9219
    0.5264 	   44.3553 	    5.0000 	   11.0000 	   15.2690
    0.5417 	   44.4430 	    5.0000 	   11.0000 	   15.6200
    0.4654 	   44.5320 	    5.0000 	   11.0000 	   15.9760
    0.4807 	   44.6183 	    5.0000 	   11.0000 	   16.3210
    0.4044 	   44.7068 	    5.0000 	   11.0000 	   16.6750
    0.4959 	   44.7950 	    5.0000 	   11.0000 	   17.0281
    0.3891 	   44.8895 	    5.0000 	   11.0000 	   17.4061
    0.3128 	   44.9810 	    5.0000 	   11.0000 	   17.7721
    0.4654 	   45.0723 	    5.0000 	   11.0000 	   18.1371
    0.6180 	   45.1623 	    5.0000 	   11.0000 	   18.4971
    0.4501 	   45.2505 	    5.0000 	   11.0000 	   18.8502
    0.3738 	   45.3370 	    5.0000 	   11.0000 	   19.1962
    0.4654 	   45.4295 	    5.0000 	   11.0000 	   19.5662
    0.3586 	   45.5193 	    5.0000 	   11.0000 	   19.9252
    0.5417 	   45.6090 	    5.0000 	   11.0000 	   20.2842
    0.4349 	   45.6975 	    5.0000 	   11.0000 	   20.6373
    0.4501 	   45.7855 	    5.0000 	   11.0000 	   20.9893
    0.4959 	   45.8750 	    5.0000 	   11.0000 	   21.3473
    0.1144 	   45.9655 	    5.0000 	   11.0000 	   21.7093
    0.3891 	   46.0555 	    5.0000 	   11.0000 	   22.0693
    0.4807 	   46.1488 	    5.0000 	   11.0000 	   22.4424
    0.4044 	   46.2410 	    5.0000 	   11.0000 	   22.8114
    0.4807 	   46.3318 	    5.0000 	   11.0000 	   23.1744
    0.4044 	   46.4250 	    5.0000 	   11.0000 	   23.5474
    0.3738 	   46.5173 	    5.0000 	   11.0000 	   23.9164
    0.3281 	   46.6053 	    5.0000 	   11.0000 	   24.2685
    0.4044 	   46.6945 	    5.0000 	   11.0000 	   24.6255
    0.5417 	   46.7850 	    5.0000 	   11.0000 	   24.9875
    0.3586 	   46.8795 	    5.0000 	   11.0000 	   25.3655
    0.1297 	   46.9733 	    5.0000 	   11.0000 	   25.7406
    0.5417 	   47.0660 	    5.0000 	   11.0000 	   26.1116
    0.3281 	   47.1598 	    5.0000 	   11.0000 	   26.4866
    0.4196 	   47.2508 	    5.0000 	   11.0000 	   26.8506
    0.5264 	   47.3415 	    5.0000 	   11.0000 	   27.2136
    0.3586 	   47.4305 	    5.0000 	   11.0000 	   27.5697
    0.3433 	   47.5200 	    5.0000 	   11.0000 	   27.9277
    0.3433 	   47.6110 	    5.0000 	   11.0000 	   28.2917
    0.4044 	   47.7020 	    5.0000 	   11.0000 	   28.6557
    0.4654 	   47.7930 	    5.0000 	   11.0000 	   29.0197
    0.3128 	   47.8840 	    5.0000 	   11.0000 	   29.3838
    0.4196 	   47.9758 	    5.0000 	   11.0000 	   29.7508
    0.5112 	   48.0658 	    5.0000 	   11.0000 	   30.1108
    0.3128 	   48.1588 	    5.0000 	   11.0000 	   30.4828
    0.4044 	   48.2530 	    5.0000 	   11.0000 	   30.8598
    0.5417 	   48.3468 	    5.0000 	   11.0000 	   31.2349
    0.4501 	   48.4368 	    5.0000 	   11.0000 	   31.5949
    0.3281 	   48.5283 	    5.0000 	   11.0000 	   31.9609
    0.4807 	   48.6208 	    5.0000 	   11.0000 	   32.3309
    0.4654 	   48.7118 	    5.0000 	   11.0000 	   32.6950
    0.3281 	   48.8028 	    5.0000 	   11.0000 	   33.0590
    0.3586 	   48.8990 	    5.0000 	   11.0000 	   33.4440
    0.4807 	   48.9945 	    5.0000 	   11.0000 	   33.8260
    0.4501 	   49.0890 	    5.0000 	   11.0000 	   34.2040
    0.3586 	   49.1803 	    5.0000 	   11.0000 	   34.5691
    0.4349 	   49.2740 	    5.0000 	   11.0000 	   34.9441
    0.3738 	   49.3695 	    5.0000 	   11.0000 	   35.3261
    0.3433 	   49.4610 	    5.0000 	   11.0000 	   35.6921
    0.4501 	   49.5530 	    5.0000 	   11.0000 	   36.0601
    0.6027 	   49.6458 	    5.0000 	   11.0000 	   36.4312
    0.4349 	   49.7408 	    5.0000 	   11.0000 	   36.8112
    0.2976 	   49.8358 	    5.0000 	   11.0000 	   37.1912
    0.3738 	   49.9288 	    5.0000 	   11.0000 	   37.5632
    0.3281 	   50.0215 	    5.0000 	   11.0000 	   37.9342
    0.2976 	   50.1168 	    5.0000 	   11.0000 	   38.3143
    0.2976 	   50.2103 	    5.0000 	   11.0000 	   38.6883
    0.3128 	   50.3020 	    5.0000 	   11.0000 	   39.0553
    0.5264 	   50.3938 	    5.0000 	   11.0000 	   39.4223
    0.2213 	   50.4903 	    5.0000 	   11.0000 	   39.8084
    0.3891 	   50.5843 	    5.0000 	   11.0000 	   40.1844
    0.2823 	   50.6800 	    5.0000 	   11.0000 	   40.5674
    0.3738 	   50.7740 	    5.0000 	   11.0000 	   40.9434
    0.4349 	   50.8698 	    5.0000 	   11.0000 	   41.3264
    0.2213 	   50.9673 	    5.0000 	   11.0000 	   41.7165
    0.3586 	   51.0620 	    5.0000 	   11.0000 	   42.0955
    0.2823 	   51.1553 	    5.0000 	   11.0000 	   42.4685
    0.2823 	   51.2540 	    5.0000 	   11.0000 	   42.8635
    0.4959 	   51.3448 	    5.0000 	   11.0000 	   43.2266
    0.2823 	   51.4358 	    5.0000 	   11.0000 	   43.5906
    0.3128 	   51.5280 	    5.0000 	   11.0000 	   43.9596
    0.4044 	   51.6205 	    5.0000 	   11.0000 	   44.3296
    0.4501 	   51.7143 	    5.0000 	   11.0000 	   44.7046
    0.3586 	   51.8063 	    5.0000 	   11.0000 	   45.0727
    0.2365 	   51.9003 	    5.0000 	   11.0000 	   45.4487
    0.3586 	   51.9925 	    5.0000 	   11.0000 	   45.8177
    0.3128 	   52.0898 	    5.0000 	   11.0000 	   46.2067
    0.2823 	   52.1855 	    5.0000 	   11.0000 	   46.5897
    0.2518 	   52.2790 	    5.0000 	   11.0000 	   46.9638
    0.4807 	   52.3743 	    5.0000 	   11.0000 	   47.3448
    0.4654 	   52.4693 	    5.0000 	   11.0000 	   47.7248
    0.2518 	   52.5643 	    5.0000 	   11.0000 	   48.1048
    0.0381 	   52.6598 	    5.0000 	   11.0000 	   48.4869
    0.5264 	   52.7573 	    5.0000 	   11.0000 	   48.8769
    0.1602 	   52.8523 	    5.0000 	   11.0000 	   49.2569
    0.0229 	   52.9485 	    5.0000 	   11.0000 	   49.6419
    0.3433 	   53.0463 	    5.0000 	   11.0000 	   50.0329
    0.1907 	   53.1423 	    5.0000 	   11.0000 	   50.4170
    0.2060 	   53.2390 	    5.0000 	   11.0000 	   50.8040
    0.3128 	   53.3340 	    5.0000 	   11.0000 	   51.1840
    0.1755 	   53.4305 	    5.0000 	   11.0000 	   51.5700
    0.3433 	   53.5283 	    5.0000 	   11.0000 	   51.9611
    0.2213 	   53.6218 	    5.0000 	   11.0000 	   52.3351
    0.3433 	   53.7160 	    5.0000 	   11.0000 	   52.7121
    0.2976 	   53.8123 	    5.0000 	   11.0000 	   53.0971
    0.4501 	   53.9098 	    5.0000 	   11.0000 	   53.4871
    0.2976 	   54.0043 	    5.0000 	   11.0000 	   53.8652
    0.3281 	   54.0998 	    5.0000 	   11.0000 	   54.2472
    0.3891 	   54.1958 	    5.0000 	   11.0000 	   54.6312
    0.3586 	   54.2940 	    5.0000 	   11.0000 	   55.0242
    0.1755 	   54.3908 	    5.0000 	   11.0000 	   55.4113
    0.2365 	   54.4885 	    5.0000 	   11.0000 	   55.8013
    0.4196 	   54.5868 	    5.0000 	   11.0000 	   56.1943
    0.2518 	   54.6860 	    5.0000 	   11.0000 	   56.5913
    0.2365 	   54.7848 	    5.0000 	   11.0000 	   56.9863
    0.1755 	   54.8803 	    5.0000 	   11.0000 	   57.3684
    0.2976 	   54.9773 	    5.0000 	   11.0000 	   57.7564
    0.2518 	   55.0745 	    5.0000 	   11.0000 	   58.1454
    0.2976 	   55.1690 	    5.0000 	   11.0000 	   58.5234
    0.1907 	   55.2640 	    5.0000 	   11.0000 	   58.9035
    0.2823 	   55.3613 	    5.0000 	   11.0000 	   59.2925
    0.2518 	   55.4600 	    5.0000 	   11.0000 	   59.6875
    0.2060 	   55.5563 	    5.0000 	   12.0000 	    0.0725
    0.3891 	   55.6518 	    5.0000 	   12.0000 	    0.4545
    0.2976 	   55.7480 	    5.0000 	   12.0000 	    0.8396
    0.2365 	   55.8440 	    5.0000 	   12.0000 	    1.2236
    0.1755 	   55.9408 	    5.0000 	   12.0000 	    1.6106
    0.3433 	   56.0435 	    5.0000 	   12.0000 	    2.0216
    0.1755 	   56.1385 	    5.0000 	   12.0000 	    2.4016
    0.1907 	   56.2328 	    5.0000 	   12.0000 	    2.7787
    0.1755 	   56.3275 	    5.0000 	   12.0000 	    3.1577
    0.1755 	   56.4288 	    5.0000 	   12.0000 	    3.5627
    0.1602 	   56.5263 	    5.0000 	   12.0000 	    3.9527
    0.3586 	   56.6200 	    5.0000 	   12.0000 	    4.3278
    0.2823 	   56.7158 	    5.0000 	   12.0000 	    4.7108
   -0.1602 	   56.8128 	    5.0000 	   12.0000 	    5.0988
    0.2670 	   56.9120 	    5.0000 	   12.0000 	    5.4958
    0.2976 	   57.0083 	    5.0000 	   12.0000 	    5.8808
    0.1907 	   57.1075 	    5.0000 	   12.0000 	    6.2779
    0.1755 	   57.2030 	    5.0000 	   12.0000 	    6.6599
    0.2213 	   57.2995 	    5.0000 	   12.0000 	    7.0459
    0.2213 	   57.3980 	    5.0000 	   12.0000 	    7.4399
    0.0687 	   57.4935 	    5.0000 	   12.0000 	    7.8220
    0.1907 	   57.5898 	    5.0000 	   12.0000 	    8.2070
    0.3281 	   57.6863 	    5.0000 	   12.0000 	    8.5930
    0.1755 	   57.7825 	    5.0000 	   12.0000 	    8.9780
    0.1602 	   57.8790 	    5.0000 	   12.0000 	    9.3640
    0.2670 	   57.9783 	    5.0000 	   12.0000 	    9.7611
    0.1755 	   58.0758 	    5.0000 	   12.0000 	   10.1511
    0.2365 	   58.1790 	    5.0000 	   12.0000 	   10.5641
    0.1144 	   58.2763 	    5.0000 	   12.0000 	   10.9531
    0.1297 	   58.3725 	    5.0000 	   12.0000 	   11.3382
    0.2976 	   58.4700 	    5.0000 	   12.0000 	   11.7282
    0.0687 	   58.5658 	    5.0000 	   12.0000 	   12.1112
    0.0839 	   58.6603 	    5.0000 	   12.0000 	   12.4892
    0.1297 	   58.7585 	    5.0000 	   12.0000 	   12.8822
    0.1602 	   58.8558 	    5.0000 	   12.0000 	   13.2703
    0.2976 	   58.9555 	    5.0000 	   12.0000 	   13.6693
    0.1602 	   59.0520 	    5.0000 	   12.0000 	   14.0553
    0.2213 	   59.1528 	    5.0000 	   12.0000 	   14.4583
    0.3738 	   59.2485 	    5.0000 	   12.0000 	   14.8414
    0.1755 	   59.3453 	    5.0000 	   12.0000 	   15.2284
    0.2365 	   59.4448 	    5.0000 	   12.0000 	   15.6264
    0.2365 	   59.5440 	    5.0000 	   12.0000 	   16.0234
    0.3128 	   59.6388 	    5.0000 	   12.0000 	   16.4025
    0.2365 	   59.7370 	    5.0000 	   12.0000 	   16.7955
   -0.0839 	   59.8365 	    5.0000 	   12.0000 	   17.1935
    0.2213 	   59.9320 	    5.0000 	   12.0000 	   17.5755
    0.1602 	   60.0313 	    5.0000 	   12.0000 	   17.9725
   -0.1297 	   60.1268 	    5.0000 	   12.0000 	   18.3546
    0.1907 	   60.2283 	    5.0000 	   12.0000 	   18.7606
    0.1907 	   60.3303 	    5.0000 	   12.0000 	   19.1686
    0.3281 	   60.3588 	    5.0000 	   12.0000 	   19.2816