File: instron/short_fabric_1W15L_drag30_spd15.txt
Thayer School of Engineering        Instron 4442 Mechanical Testing System
6/28/2018 4:26:21 AM

  Force (N)	Extension (mm)	Not Used	Not Used	Not Used	     Hour	    Minute	    Second
    0.0534 	    0.2558 	    4.0000 	   26.0000 	   52.3286
    0.0992 	    0.3370 	    4.0000 	   26.0000 	   52.6537
    0.1297 	    0.4075 	    4.0000 	   26.0000 	   52.9357
    0.1144 	    0.4918 	    4.0000 	   26.0000 	   53.2727
    0.2670 	    0.5753 	    4.0000 	   26.0000 	   53.6067
   -0.1144 	    0.6490 	    4.0000 	   26.0000 	   53.9017
    0.2060 	    0.7540 	    4.0000 	   26.0000 	   54.3218
    0.0534 	    0.8198 	    4.0000 	   26.0000 	   54.5848
    0.0992 	    0.8778 	    4.0000 	   26.0000 	   54.8168
    0.1450 	    0.9335 	    4.0000 	   26.0000 	   55.0398
    0.0229 	    0.9998 	    4.0000 	   26.0000 	   55.3048
    0.1907 	    1.0505 	    4.0000 	   26.0000 	   55.5078
    0.1144 	    1.1083 	    4.0000 	   26.0000 	   55.7388
    0.1907 	    1.1723 	    4.0000 	   26.0000 	   55.9949
    0.1450 	    1.2285 	    4.0000 	   26.0000 	   56.2199
    0.2976 	    1.2840 	    4.0000 	   26.0000 	   56.4419
    0.0687 	    1.3410 	    4.0000 	   26.0000 	   56.6699
    0.1450 	    1.3935 	    4.0000 	   26.0000 	   56.8799
    0.0076 	    1.4488 	    4.0000 	   26.0000 	   57.1009
    0.1602 	    1.5010 	    4.0000 	   26.0000 	   57.3089
    0.1907 	    1.5498 	    4.0000 	   26.0000 	   57.5049
    0.2060 	    1.6065 	    4.0000 	   26.0000 	   57.7320
    0.0839 	    1.6625 	    4.0000 	   26.0000 	   57.9560
    0.2365 	    1.7193 	    4.0000 	   26.0000 	   58.1830
    0.0076 	    1.7688 	    4.0000 	   26.0000 	   58.3810
    0.1450 	    1.8163 	    4.0000 	   26.0000 	   58.5710
   -0.0076 	    1.8738 	    4.0000 	   26.0000 	   58.8010
    0.1297 	    1.9325 	    4.0000 	   26.0000 	   59.0360
    0.1907 	    1.9858 	    4.0000 	   26.0000 	   59.2490
    0.1450 	    2.0345 	    4.0000 	   26.0000 	   59.4440
    0.1144 	    2.0898 	    4.0000 	   26.0000 	   59.6651
    0.1297 	    2.1450 	    4.0000 	   26.0000 	   59.8861
    0.2976 	    2.1995 	    4.0000 	   27.0000 	    0.1041
    0.0534 	    2.2520 	    4.0000 	   27.0000 	    0.3131
    0.1602 	    2.3008 	    4.0000 	   27.0000 	    0.5091
    0.2213 	    2.3563 	    4.0000 	   27.0000 	    0.7311
    0.2060 	    2.4115 	    4.0000 	   27.0000 	    0.9521
    0.1297 	    2.4675 	    4.0000 	   27.0000 	    1.1761
    0.2823 	    2.5180 	    4.0000 	   27.0000 	    1.3782
    0.0076 	    2.5698 	    4.0000 	   27.0000 	    1.5852
    0.1297 	    2.6270 	    4.0000 	   27.0000 	    1.8142
    0.1297 	    2.6813 	    4.0000 	   27.0000 	    2.0312
    0.2823 	    2.7353 	    4.0000 	   27.0000 	    2.2472
    0.2060 	    2.7858 	    4.0000 	   27.0000 	    2.4492
    0.2518 	    2.8415 	    4.0000 	   27.0000 	    2.6722
    0.4349 	    2.8990 	    4.0000 	   27.0000 	    2.9022
    0.2365 	    2.9565 	    4.0000 	   27.0000 	    3.1323
    0.1907 	    3.0085 	    4.0000 	   27.0000 	    3.3403
    0.2670 	    3.0590 	    4.0000 	   27.0000 	    3.5423
    0.1144 	    3.1158 	    4.0000 	   27.0000 	    3.7683
    0.1755 	    3.1738 	    4.0000 	   27.0000 	    4.0003
    0.1450 	    3.2283 	    4.0000 	   27.0000 	    4.2183
    0.0076 	    3.2788 	    4.0000 	   27.0000 	    4.4203
    0.3738 	    3.3333 	    4.0000 	   27.0000 	    4.6383
    0.1144 	    3.3893 	    4.0000 	   27.0000 	    4.8624
    0.1907 	    3.4460 	    4.0000 	   27.0000 	    5.0894
    0.1297 	    3.5008 	    4.0000 	   27.0000 	    5.3084
    0.2670 	    3.5518 	    4.0000 	   27.0000 	    5.5124
    0.1907 	    3.6083 	    4.0000 	   27.0000 	    5.7384
    0.1755 	    3.6668 	    4.0000 	   27.0000 	    5.9724
    0.1450 	    3.7240 	    4.0000 	   27.0000 	    6.2014
    0.2518 	    3.7758 	    4.0000 	   27.0000 	    6.4084
    0.1297 	    3.8308 	    4.0000 	   27.0000 	    6.6285
    0.2213 	    3.8865 	    4.0000 	   27.0000 	    6.8515
    0.3128 	    3.9445 	    4.0000 	   27.0000 	    7.0835
    0.2823 	    4.0008 	    4.0000 	   27.0000 	    7.3085
    0.1907 	    4.0530 	    4.0000 	   27.0000 	    7.5175
    0.1297 	    4.1118 	    4.0000 	   27.0000 	    7.7525
    0.3128 	    4.1715 	    4.0000 	   27.0000 	    7.9915
    0.2213 	    4.2290 	    4.0000 	   27.0000 	    8.2216
    0.1602 	    4.2810 	    4.0000 	   27.0000 	    8.4296
    0.1602 	    4.3368 	    4.0000 	   27.0000 	    8.6526
    0.2060 	    4.3948 	    4.0000 	   27.0000 	    8.8846
    0.1755 	    4.4540 	    4.0000 	   27.0000 	    9.1216
    0.1144 	    4.5098 	    4.0000 	   27.0000 	    9.3446
    0.2365 	    4.5603 	    4.0000 	   27.0000 	    9.5466
    0.1602 	    4.6188 	    4.0000 	   27.0000 	    9.7806
    0.0839 	    4.6773 	    4.0000 	   27.0000 	   10.0147
    0.1602 	    4.7343 	    4.0000 	   27.0000 	   10.2427
    0.0381 	    4.7880 	    4.0000 	   27.0000 	   10.4577
    0.2518 	    4.8463 	    4.0000 	   27.0000 	   10.6907
    0.2976 	    4.9075 	    4.0000 	   27.0000 	   10.9357
    0.3281 	    4.9693 	    4.0000 	   27.0000 	   11.1827
    0.2060 	    5.0243 	    4.0000 	   27.0000 	   11.4017
    0.1602 	    5.0740 	    4.0000 	   27.0000 	   11.6017
    0.2518 	    5.1333 	    4.0000 	   27.0000 	   11.8388
    0.2518 	    5.1925 	    4.0000 	   27.0000 	   12.0758
    0.2365 	    5.2500 	    4.0000 	   27.0000 	   12.3058
    0.2518 	    5.3015 	    4.0000 	   27.0000 	   12.5118
    0.2060 	    5.3560 	    4.0000 	   27.0000 	   12.7298
    0.3433 	    5.4160 	    4.0000 	   27.0000 	   12.9698
    0.2365 	    5.4763 	    4.0000 	   27.0000 	   13.2108
    0.1144 	    5.5308 	    4.0000 	   27.0000 	   13.4288
    0.2976 	    5.5875 	    4.0000 	   27.0000 	   13.6559
    0.2365 	    5.6483 	    4.0000 	   27.0000 	   13.8989
    0.1907 	    5.7068 	    4.0000 	   27.0000 	   14.1329
    0.1450 	    5.7643 	    4.0000 	   27.0000 	   14.3629
    0.2060 	    5.8170 	    4.0000 	   27.0000 	   14.5739
    0.3281 	    5.8700 	    4.0000 	   27.0000 	   14.7859
    0.2976 	    5.9308 	    4.0000 	   27.0000 	   15.0279
    0.1907 	    5.9898 	    4.0000 	   27.0000 	   15.2650
    0.2060 	    6.0443 	    4.0000 	   27.0000 	   15.4830
    0.0992 	    6.1058 	    4.0000 	   27.0000 	   15.7290
    0.2213 	    6.1670 	    4.0000 	   27.0000 	   15.9740
    0.1602 	    6.2280 	    4.0000 	   27.0000 	   16.2180
    0.2976 	    6.2845 	    4.0000 	   27.0000 	   16.4440
    0.2518 	    6.3410 	    4.0000 	   27.0000 	   16.6700
    0.2365 	    6.3990 	    4.0000 	   27.0000 	   16.9020
    0.2823 	    6.4605 	    4.0000 	   27.0000 	   17.1481
    0.1144 	    6.5198 	    4.0000 	   27.0000 	   17.3851
    0.3128 	    6.5763 	    4.0000 	   27.0000 	   17.6111
    0.2976 	    6.6388 	    4.0000 	   27.0000 	   17.8611
    0.1755 	    6.7018 	    4.0000 	   27.0000 	   18.1131
    0.2060 	    6.7623 	    4.0000 	   27.0000 	   18.3551
    0.1450 	    6.8173 	    4.0000 	   27.0000 	   18.5751
    0.3281 	    6.8725 	    4.0000 	   27.0000 	   18.7962
    0.1755 	    6.9343 	    4.0000 	   27.0000 	   19.0432
    0.1602 	    6.9960 	    4.0000 	   27.0000 	   19.2902
    0.2976 	    7.0538 	    4.0000 	   27.0000 	   19.5212
    0.0687 	    7.1165 	    4.0000 	   27.0000 	   19.7722
    0.4501 	    7.1783 	    4.0000 	   27.0000 	   20.0192
    0.3281 	    7.2370 	    4.0000 	   27.0000 	   20.2542
    0.2518 	    7.2930 	    4.0000 	   27.0000 	   20.4783
    0.2213 	    7.3525 	    4.0000 	   27.0000 	   20.7163
    0.3433 	    7.4160 	    4.0000 	   27.0000 	   20.9703
   -0.0534 	    7.4803 	    4.0000 	   27.0000 	   21.2263
    0.3586 	    7.5375 	    4.0000 	   27.0000 	   21.4553
    0.2213 	    7.5958 	    4.0000 	   27.0000 	   21.6883
    0.1907 	    7.6590 	    4.0000 	   27.0000 	   21.9413
    0.2213 	    7.7195 	    4.0000 	   27.0000 	   22.1833
    0.3128 	    7.7763 	    4.0000 	   27.0000 	   22.4104
    0.3586 	    7.8338 	    4.0000 	   27.0000 	   22.6404
    0.3128 	    7.8958 	    4.0000 	   27.0000 	   22.8884
    0.1602 	    7.9565 	    4.0000 	   27.0000 	   23.1314
    0.2213 	    8.0185 	    4.0000 	   27.0000 	   23.3794
    0.2365 	    8.0770 	    4.0000 	   27.0000 	   23.6134
    0.2060 	    8.1413 	    4.0000 	   27.0000 	   23.8704
    0.2976 	    8.2048 	    4.0000 	   27.0000 	   24.1245
    0.1755 	    8.2638 	    4.0000 	   27.0000 	   24.3605
    0.3128 	    8.3190 	    4.0000 	   27.0000 	   24.5815
    0.1450 	    8.3815 	    4.0000 	   27.0000 	   24.8315
    0.3128 	    8.4475 	    4.0000 	   27.0000 	   25.0955
    0.1297 	    8.5100 	    4.0000 	   27.0000 	   25.3455
    0.1907 	    8.5675 	    4.0000 	   27.0000 	   25.5755
    0.2060 	    8.6318 	    4.0000 	   27.0000 	   25.8326
    0.1907 	    8.6950 	    4.0000 	   27.0000 	   26.0856
   -0.0534 	    8.7583 	    4.0000 	   27.0000 	   26.3386
    0.2365 	    8.8153 	    4.0000 	   27.0000 	   26.5666
    0.4959 	    8.8815 	    4.0000 	   27.0000 	   26.8316
    0.4501 	    8.9430 	    4.0000 	   27.0000 	   27.0776
   -0.0534 	    9.0045 	    4.0000 	   27.0000 	   27.3236
    0.2213 	    9.0648 	    4.0000 	   27.0000 	   27.5647
    0.4349 	    9.1263 	    4.0000 	   27.0000 	   27.8107
    0.2518 	    9.1918 	    4.0000 	   27.0000 	   28.0727
    0.3586 	    9.2560 	    4.0000 	   27.0000 	   28.3297
    0.2518 	    9.3135 	    4.0000 	   27.0000 	   28.5597
    0.2823 	    9.3763 	    4.0000 	   27.0000 	   28.8107
    0.1907 	    9.4440 	    4.0000 	   27.0000 	   29.0817
   -0.0381 	    9.5095 	    4.0000 	   27.0000 	   29.3438
    0.2518 	    9.5703 	    4.0000 	   27.0000 	   29.5868
    0.2518 	    9.6340 	    4.0000 	   27.0000 	   29.8418
    0.2365 	    9.6955 	    4.0000 	   27.0000 	   30.0878
    0.2518 	    9.7568 	    4.0000 	   27.0000 	   30.3328
    0.1755 	    9.8155 	    4.0000 	   27.0000 	   30.5678
    0.3738 	    9.8800 	    4.0000 	   27.0000 	   30.8258
    0.2976 	    9.9415 	    4.0000 	   27.0000 	   31.0719
    0.3128 	   10.0010 	    4.0000 	   27.0000 	   31.3099
    0.2060 	   10.0615 	    4.0000 	   27.0000 	   31.5519
    0.3128 	   10.1283 	    4.0000 	   27.0000 	   31.8189
    0.2213 	   10.1905 	    4.0000 	   27.0000 	   32.0679
    0.1755 	   10.2510 	    4.0000 	   27.0000 	   32.3099
    0.3738 	   10.3115 	    4.0000 	   27.0000 	   32.5519
    0.2518 	   10.3713 	    4.0000 	   27.0000 	   32.7910
    0.3586 	   10.4323 	    4.0000 	   27.0000 	   33.0350
    0.2823 	   10.4925 	    4.0000 	   27.0000 	   33.2760
    0.3433 	   10.5523 	    4.0000 	   27.0000 	   33.5150
    0.2976 	   10.6120 	    4.0000 	   27.0000 	   33.7540
    0.2365 	   10.6748 	    4.0000 	   27.0000 	   34.0050
    0.3738 	   10.7353 	    4.0000 	   27.0000 	   34.2470
    0.2976 	   10.7965 	    4.0000 	   27.0000 	   34.4921
    0.1450 	   10.8600 	    4.0000 	   27.0000 	   34.7461
    0.4959 	   10.9273 	    4.0000 	   27.0000 	   35.0151
    0.2976 	   10.9968 	    4.0000 	   27.0000 	   35.2931
    0.4044 	   11.0605 	    4.0000 	   27.0000 	   35.5481
    0.2823 	   11.1295 	    4.0000 	   27.0000 	   35.8241
    0.2213 	   11.1955 	    4.0000 	   27.0000 	   36.0881
    0.3433 	   11.2658 	    4.0000 	   27.0000 	   36.3692
    0.2365 	   11.3265 	    4.0000 	   27.0000 	   36.6122
    0.2976 	   11.3935 	    4.0000 	   27.0000 	   36.8802
    0.2823 	   11.4580 	    4.0000 	   27.0000 	   37.1382
    0.3738 	   11.5195 	    4.0000 	   27.0000 	   37.3842
    0.2670 	   11.5800 	    4.0000 	   27.0000 	   37.6262
    0.2823 	   11.6450 	    4.0000 	   27.0000 	   37.8862
    0.2823 	   11.7128 	    4.0000 	   27.0000 	   38.1573
    0.0381 	   11.7805 	    4.0000 	   27.0000 	   38.4283
    0.3128 	   11.8428 	    4.0000 	   27.0000 	   38.6773
    0.2518 	   11.9125 	    4.0000 	   27.0000 	   38.9553
    0.3738 	   11.9753 	    4.0000 	   27.0000 	   39.2063
    0.1450 	   12.0395 	    4.0000 	   27.0000 	   39.4633
    0.2670 	   12.1055 	    4.0000 	   27.0000 	   39.7274
    0.2518 	   12.1718 	    4.0000 	   27.0000 	   39.9924
    0.3128 	   12.2385 	    4.0000 	   27.0000 	   40.2594
    0.2823 	   12.3020 	    4.0000 	   27.0000 	   40.5134
    0.3891 	   12.3680 	    4.0000 	   27.0000 	   40.7774
    0.0229 	   12.4323 	    4.0000 	   27.0000 	   41.0344
    0.4044 	   12.4970 	    4.0000 	   27.0000 	   41.2934
    0.3128 	   12.5630 	    4.0000 	   27.0000 	   41.5575
    0.3128 	   12.6248 	    4.0000 	   27.0000 	   41.8045
    0.3281 	   12.6903 	    4.0000 	   27.0000 	   42.0665
    0.3281 	   12.7610 	    4.0000 	   27.0000 	   42.3495
    0.1755 	   12.8270 	    4.0000 	   27.0000 	   42.6135
    0.0381 	   12.8940 	    4.0000 	   27.0000 	   42.8815
    0.3891 	   12.9605 	    4.0000 	   27.0000 	   43.1475
    0.2518 	   13.0275 	    4.0000 	   27.0000 	   43.4156
    0.2823 	   13.0923 	    4.0000 	   27.0000 	   43.6746
    0.4044 	   13.1640 	    4.0000 	   27.0000 	   43.9616
    0.4501 	   13.2348 	    4.0000 	   27.0000 	   44.2446
    0.4654 	   13.3045 	    4.0000 	   27.0000 	   44.5236
    0.3433 	   13.3713 	    4.0000 	   27.0000 	   44.7906
    0.1602 	   13.4435 	    4.0000 	   27.0000 	   45.0797
    0.3891 	   13.5150 	    4.0000 	   27.0000 	   45.3657
    0.2518 	   13.5813 	    4.0000 	   27.0000 	   45.6307
    0.4654 	   13.6555 	    4.0000 	   27.0000 	   45.9277
    0.2976 	   13.7265 	    4.0000 	   27.0000 	   46.2117
    0.3281 	   13.7960 	    4.0000 	   27.0000 	   46.4897
    0.3738 	   13.8610 	    4.0000 	   27.0000 	   46.7498
    0.3128 	   13.9335 	    4.0000 	   27.0000 	   47.0398
    0.4044 	   14.0025 	    4.0000 	   27.0000 	   47.3148
    0.4501 	   14.0700 	    4.0000 	   27.0000 	   47.5858
    0.2518 	   14.1403 	    4.0000 	   27.0000 	   47.8668
    0.4349 	   14.2123 	    4.0000 	   27.0000 	   48.1548
    0.3128 	   14.2833 	    4.0000 	   27.0000 	   48.4389
   -0.0076 	   14.3485 	    4.0000 	   27.0000 	   48.6999
    0.3891 	   14.4213 	    4.0000 	   27.0000 	   48.9909
    0.4044 	   14.4933 	    4.0000 	   27.0000 	   49.2789
    0.2976 	   14.5635 	    4.0000 	   27.0000 	   49.5599
    0.2823 	   14.6335 	    4.0000 	   27.0000 	   49.8399
    0.3891 	   14.7063 	    4.0000 	   27.0000 	   50.1309
    0.3738 	   14.7775 	    4.0000 	   27.0000 	   50.4160
    0.2976 	   14.8433 	    4.0000 	   27.0000 	   50.6790
    0.3128 	   14.9150 	    4.0000 	   27.0000 	   50.9660
    0.3128 	   14.9870 	    4.0000 	   27.0000 	   51.2540
    0.3433 	   15.0545 	    4.0000 	   27.0000 	   51.5240
    0.4349 	   15.1255 	    4.0000 	   27.0000 	   51.8080
    0.3738 	   15.1970 	    4.0000 	   27.0000 	   52.0941
    0.2976 	   15.2645 	    4.0000 	   27.0000 	   52.3641
    0.3433 	   15.3313 	    4.0000 	   27.0000 	   52.6311
    0.2365 	   15.4020 	    4.0000 	   27.0000 	   52.9141
    0.4501 	   15.4718 	    4.0000 	   27.0000 	   53.1931
    0.3586 	   15.5395 	    4.0000 	   27.0000 	   53.4641
    0.1144 	   15.6085 	    4.0000 	   27.0000 	   53.7402
    0.3433 	   15.6818 	    4.0000 	   27.0000 	   54.0332
    0.3738 	   15.7495 	    4.0000 	   27.0000 	   54.3042
    0.2976 	   15.8215 	    4.0000 	   27.0000 	   54.5922
    0.3433 	   15.8888 	    4.0000 	   27.0000 	   54.8612
    0.3281 	   15.9568 	    4.0000 	   27.0000 	   55.1332
    0.3891 	   16.0285 	    4.0000 	   27.0000 	   55.4202
    0.4044 	   16.0975 	    4.0000 	   27.0000 	   55.6963
    0.3128 	   16.1693 	    4.0000 	   27.0000 	   55.9833
    0.3738 	   16.2390 	    4.0000 	   27.0000 	   56.2613
    0.2976 	   16.3095 	    4.0000 	   27.0000 	   56.5433
    0.4349 	   16.3780 	    4.0000 	   27.0000 	   56.8173
    0.4959 	   16.4455 	    4.0000 	   27.0000 	   57.0873
    0.3586 	   16.5158 	    4.0000 	   27.0000 	   57.3684
    0.4044 	   16.5833 	    4.0000 	   27.0000 	   57.6384
    0.2518 	   16.6553 	    4.0000 	   27.0000 	   57.9264
    0.4807 	   16.7285 	    4.0000 	   27.0000 	   58.2194
    0.3586 	   16.7995 	    4.0000 	   27.0000 	   58.5034
    0.3281 	   16.8668 	    4.0000 	   27.0000 	   58.7724
    0.2976 	   16.9375 	    4.0000 	   27.0000 	   59.0555
    0.2976 	   17.0088 	    4.0000 	   27.0000 	   59.3405
    0.4044 	   17.0798 	    4.0000 	   27.0000 	   59.6245
    0.3738 	   17.1473 	    4.0000 	   27.0000 	   59.8945
    0.4654 	   17.2148 	    4.0000 	   28.0000 	    0.1645
    0.4349 	   17.2853 	    4.0000 	   28.0000 	    0.4465
    0.4959 	   17.3558 	    4.0000 	   28.0000 	    0.7286
    0.4654 	   17.4303 	    4.0000 	   28.0000 	    1.0266
    0.3738 	   17.5003 	    4.0000 	   28.0000 	    1.3066
    0.5417 	   17.5715 	    4.0000 	   28.0000 	    1.5916
    0.4044 	   17.6400 	    4.0000 	   28.0000 	    1.8656
    0.4349 	   17.7083 	    4.0000 	   28.0000 	    2.1386
    0.4044 	   17.7773 	    4.0000 	   28.0000 	    2.4147
    0.4196 	   17.8460 	    4.0000 	   28.0000 	    2.6897
    0.3586 	   17.9158 	    4.0000 	   28.0000 	    2.9687
    0.5112 	   17.9845 	    4.0000 	   28.0000 	    3.2437
    0.2976 	   18.0565 	    4.0000 	   28.0000 	    3.5317
    0.5722 	   18.1240 	    4.0000 	   28.0000 	    3.8017
    0.4959 	   18.1970 	    4.0000 	   28.0000 	    4.0937
    0.6027 	   18.2663 	    4.0000 	   28.0000 	    4.3708
    0.4044 	   18.3380 	    4.0000 	   28.0000 	    4.6578
    0.3738 	   18.4068 	    4.0000 	   28.0000 	    4.9328
    0.4044 	   18.4788 	    4.0000 	   28.0000 	    5.2208
    0.4044 	   18.5520 	    4.0000 	   28.0000 	    5.5138
    0.4959 	   18.6243 	    4.0000 	   28.0000 	    5.8028
    0.4349 	   18.7013 	    4.0000 	   28.0000 	    6.1109
    0.4196 	   18.7705 	    4.0000 	   28.0000 	    6.3879
    0.3586 	   18.8435 	    4.0000 	   28.0000 	    6.6799
    0.3281 	   18.9143 	    4.0000 	   28.0000 	    6.9629
    0.5112 	   18.9850 	    4.0000 	   28.0000 	    7.2459
    0.2823 	   19.0560 	    4.0000 	   28.0000 	    7.5299
    0.3891 	   19.1273 	    4.0000 	   28.0000 	    7.8150
    0.4959 	   19.2000 	    4.0000 	   28.0000 	    8.1060
    0.4349 	   19.2708 	    4.0000 	   28.0000 	    8.3890
    0.5417 	   19.3450 	    4.0000 	   28.0000 	    8.6860
    0.4654 	   19.4148 	    4.0000 	   28.0000 	    8.9650
    0.3128 	   19.4855 	    4.0000 	   28.0000 	    9.2480
    0.2060 	   19.5598 	    4.0000 	   28.0000 	    9.5451
    0.4044 	   19.6298 	    4.0000 	   28.0000 	    9.8251
    0.3281 	   19.7003 	    4.0000 	   28.0000 	   10.1071
    0.4349 	   19.7758 	    4.0000 	   28.0000 	   10.4091
    0.4044 	   19.8488 	    4.0000 	   28.0000 	   10.7011
    0.3281 	   19.9233 	    4.0000 	   28.0000 	   10.9991
    0.4044 	   19.9943 	    4.0000 	   28.0000 	   11.2832
    0.4959 	   20.0670 	    4.0000 	   28.0000 	   11.5742
    0.3128 	   20.1403 	    4.0000 	   28.0000 	   11.8672
    0.4959 	   20.2163 	    4.0000 	   28.0000 	   12.1712
    0.4501 	   20.2915 	    4.0000 	   28.0000 	   12.4722
    0.3738 	   20.3640 	    4.0000 	   28.0000 	   12.7622
    0.4654 	   20.4358 	    4.0000 	   28.0000 	   13.0493
    0.3738 	   20.5110 	    4.0000 	   28.0000 	   13.3503
    0.4349 	   20.5828 	    4.0000 	   28.0000 	   13.6373
    0.6638 	   20.6575 	    4.0000 	   28.0000 	   13.9353
    0.5112 	   20.7310 	    4.0000 	   28.0000 	   14.2293
    0.1450 	   20.8048 	    4.0000 	   28.0000 	   14.5243
    0.1297 	   20.8800 	    4.0000 	   28.0000 	   14.8254
    0.4196 	   20.9523 	    4.0000 	   28.0000 	   15.1144
    0.4807 	   21.0268 	    4.0000 	   28.0000 	   15.4124
    0.4654 	   21.1008 	    4.0000 	   28.0000 	   15.7084
    0.4807 	   21.1720 	    4.0000 	   28.0000 	   15.9934
    0.3738 	   21.2445 	    4.0000 	   28.0000 	   16.2834
    0.1907 	   21.3185 	    4.0000 	   28.0000 	   16.5795
    0.4349 	   21.3918 	    4.0000 	   28.0000 	   16.8725
    0.3281 	   21.4658 	    4.0000 	   28.0000 	   17.1685
    0.6027 	   21.5393 	    4.0000 	   28.0000 	   17.4625
    0.4501 	   21.6123 	    4.0000 	   28.0000 	   17.7545
    0.5417 	   21.6913 	    4.0000 	   28.0000 	   18.0705
    0.4959 	   21.7713 	    4.0000 	   28.0000 	   18.3896
    0.4654 	   21.8455 	    4.0000 	   28.0000 	   18.6876
    0.2976 	   21.9185 	    4.0000 	   28.0000 	   18.9796
    0.4349 	   21.9915 	    4.0000 	   28.0000 	   19.2716
    0.4959 	   22.0690 	    4.0000 	   28.0000 	   19.5816
    0.4501 	   22.1448 	    4.0000 	   28.0000 	   19.8846
    0.5112 	   22.2188 	    4.0000 	   28.0000 	   20.1807
    0.4959 	   22.2958 	    4.0000 	   28.0000 	   20.4887
    0.4654 	   22.3700 	    4.0000 	   28.0000 	   20.7857
    0.4196 	   22.4475 	    4.0000 	   28.0000 	   21.0957
    0.6180 	   22.5260 	    4.0000 	   28.0000 	   21.4097
    0.4807 	   22.6018 	    4.0000 	   28.0000 	   21.7128
    0.4501 	   22.6778 	    4.0000 	   28.0000 	   22.0168
    0.4959 	   22.7520 	    4.0000 	   28.0000 	   22.3138
    0.4044 	   22.8243 	    4.0000 	   28.0000 	   22.6028
    0.2976 	   22.8990 	    4.0000 	   28.0000 	   22.9018
    0.5417 	   22.9748 	    4.0000 	   28.0000 	   23.2048
    0.4501 	   23.0523 	    4.0000 	   28.0000 	   23.5149
    0.5722 	   23.1305 	    4.0000 	   28.0000 	   23.8279
    0.5722 	   23.2078 	    4.0000 	   28.0000 	   24.1369
    0.3891 	   23.2820 	    4.0000 	   28.0000 	   24.4339
    0.4196 	   23.3575 	    4.0000 	   28.0000 	   24.7359
    0.5112 	   23.4295 	    4.0000 	   28.0000 	   25.0239
    0.5264 	   23.5083 	    4.0000 	   28.0000 	   25.3390
    0.5112 	   23.5868 	    4.0000 	   28.0000 	   25.6530
    0.2823 	   23.6615 	    4.0000 	   28.0000 	   25.9520
    0.5112 	   23.7415 	    4.0000 	   28.0000 	   26.2720
    0.4501 	   23.8198 	    4.0000 	   28.0000 	   26.5850
    0.4959 	   23.8960 	    4.0000 	   28.0000 	   26.8901
    0.5417 	   23.9705 	    4.0000 	   28.0000 	   27.1881
    0.4654 	   24.0518 	    4.0000 	   28.0000 	   27.5131
    0.5112 	   24.1293 	    4.0000 	   28.0000 	   27.8231
    0.4501 	   24.2078 	    4.0000 	   28.0000 	   28.1371
    0.6180 	   24.2825 	    4.0000 	   28.0000 	   28.4361
    0.6332 	   24.3585 	    4.0000 	   28.0000 	   28.7402
    0.5264 	   24.4350 	    4.0000 	   28.0000 	   29.0462
    0.6485 	   24.5145 	    4.0000 	   28.0000 	   29.3642
    0.6180 	   24.5943 	    4.0000 	   28.0000 	   29.6832
    0.4044 	   24.6735 	    4.0000 	   28.0000 	   30.0002
    0.5112 	   24.7525 	    4.0000 	   28.0000 	   30.3162
    0.4807 	   24.8323 	    4.0000 	   28.0000 	   30.6353
    0.5417 	   24.9063 	    4.0000 	   28.0000 	   30.9313
    0.6943 	   24.9850 	    4.0000 	   28.0000 	   31.2453
    0.2670 	   25.0663 	    4.0000 	   28.0000 	   31.5703
    0.5112 	   25.1455 	    4.0000 	   28.0000 	   31.8873
    0.4959 	   25.2225 	    4.0000 	   28.0000 	   32.1954
    0.6180 	   25.3013 	    4.0000 	   28.0000 	   32.5104
    0.6180 	   25.3773 	    4.0000 	   28.0000 	   32.8144
    0.5417 	   25.4528 	    4.0000 	   28.0000 	   33.1164
    0.5570 	   25.5345 	    4.0000 	   28.0000 	   33.4434
    0.6638 	   25.6128 	    4.0000 	   28.0000 	   33.7564
    0.5875 	   25.6885 	    4.0000 	   28.0000 	   34.0595
    0.4959 	   25.7703 	    4.0000 	   28.0000 	   34.3865
    0.5875 	   25.8493 	    4.0000 	   28.0000 	   34.7025
    0.5417 	   25.9300 	    4.0000 	   28.0000 	   35.0255
    0.5417 	   26.0093 	    4.0000 	   28.0000 	   35.3425
    0.2365 	   26.0885 	    4.0000 	   28.0000 	   35.6596
    0.5722 	   26.1658 	    4.0000 	   28.0000 	   35.9686
    0.5264 	   26.2420 	    4.0000 	   28.0000 	   36.2736
    0.5875 	   26.3228 	    4.0000 	   28.0000 	   36.5966
    0.4654 	   26.3995 	    4.0000 	   28.0000 	   36.9036
    0.4959 	   26.4843 	    4.0000 	   28.0000 	   37.2426
    0.5875 	   26.5660 	    4.0000 	   28.0000 	   37.5697
    0.7095 	   26.6425 	    4.0000 	   28.0000 	   37.8757
    0.2823 	   26.7228 	    4.0000 	   28.0000 	   38.1967
    0.6943 	   26.8015 	    4.0000 	   28.0000 	   38.5117
    0.4959 	   26.8788 	    4.0000 	   28.0000 	   38.8207
    0.4654 	   26.9555 	    4.0000 	   28.0000 	   39.1278
    0.4501 	   27.0333 	    4.0000 	   28.0000 	   39.4388
    0.6180 	   27.1110 	    4.0000 	   28.0000 	   39.7498
    0.6027 	   27.1893 	    4.0000 	   28.0000 	   40.0628
    0.6790 	   27.2680 	    4.0000 	   28.0000 	   40.3778
    0.6180 	   27.3450 	    4.0000 	   28.0000 	   40.6858
    0.6332 	   27.4243 	    4.0000 	   28.0000 	   41.0029
    0.4959 	   27.5035 	    4.0000 	   28.0000 	   41.3199
    0.4959 	   27.5835 	    4.0000 	   28.0000 	   41.6399
    0.5417 	   27.6628 	    4.0000 	   28.0000 	   41.9569
    0.6332 	   27.7408 	    4.0000 	   28.0000 	   42.2689
    0.6332 	   27.8200 	    4.0000 	   28.0000 	   42.5859
    0.6943 	   27.9010 	    4.0000 	   28.0000 	   42.9090
    0.6332 	   27.9828 	    4.0000 	   28.0000 	   43.2370
    0.6332 	   28.0633 	    4.0000 	   28.0000 	   43.5590
    0.5570 	   28.1413 	    4.0000 	   28.0000 	   43.8710
    0.5722 	   28.2205 	    4.0000 	   28.0000 	   44.1880
    0.4807 	   28.2990 	    4.0000 	   28.0000 	   44.5021
    0.6027 	   28.3770 	    4.0000 	   28.0000 	   44.8141
    0.5417 	   28.4588 	    4.0000 	   28.0000 	   45.1411
    0.5570 	   28.5370 	    4.0000 	   28.0000 	   45.4541
    0.6638 	   28.6160 	    4.0000 	   28.0000 	   45.7701
    0.2976 	   28.6943 	    4.0000 	   28.0000 	   46.0831
    0.7095 	   28.7728 	    4.0000 	   28.0000 	   46.3972
    0.7095 	   28.8520 	    4.0000 	   28.0000 	   46.7142
    0.6790 	   28.9313 	    4.0000 	   28.0000 	   47.0312
    0.5417 	   29.0105 	    4.0000 	   28.0000 	   47.3482
    0.6027 	   29.0908 	    4.0000 	   28.0000 	   47.6692
    0.6027 	   29.1723 	    4.0000 	   28.0000 	   47.9953
    0.6485 	   29.2558 	    4.0000 	   28.0000 	   48.3293
    0.6180 	   29.3345 	    4.0000 	   28.0000 	   48.6433
    0.4349 	   29.4148 	    4.0000 	   28.0000 	   48.9643
    0.7095 	   29.4953 	    4.0000 	   28.0000 	   49.2863
    0.6485 	   29.5753 	    4.0000 	   28.0000 	   49.6063
    0.5570 	   29.6548 	    4.0000 	   28.0000 	   49.9244
    0.6485 	   29.7348 	    4.0000 	   28.0000 	   50.2444
    0.5722 	   29.8188 	    4.0000 	   28.0000 	   50.5804
    0.5264 	   29.8985 	    4.0000 	   28.0000 	   50.8994
    0.5570 	   29.9818 	    4.0000 	   28.0000 	   51.2324
    0.6332 	   30.0650 	    4.0000 	   28.0000 	   51.5655
    0.6790 	   30.1465 	    4.0000 	   28.0000 	   51.8915
    0.5112 	   30.2300 	    4.0000 	   28.0000 	   52.2255
    0.4501 	   30.3118 	    4.0000 	   28.0000 	   52.5525
    0.6485 	   30.3933 	    4.0000 	   28.0000 	   52.8785
    0.7095 	   30.4745 	    4.0000 	   28.0000 	   53.2036
    0.6332 	   30.5608 	    4.0000 	   28.0000 	   53.5486
    0.4959 	   30.6440 	    4.0000 	   28.0000 	   53.8816
    0.5570 	   30.7270 	    4.0000 	   28.0000 	   54.2136
    0.6485 	   30.8083 	    4.0000 	   28.0000 	   54.5386
    0.6332 	   30.8908 	    4.0000 	   28.0000 	   54.8687
    0.5722 	   30.9725 	    4.0000 	   28.0000 	   55.1957
    0.5722 	   31.0565 	    4.0000 	   28.0000 	   55.5317
    0.6638 	   31.1373 	    4.0000 	   28.0000 	   55.8547
    0.5112 	   31.2178 	    4.0000 	   28.0000 	   56.1767
    0.6638 	   31.2980 	    4.0000 	   28.0000 	   56.4977
    0.5875 	   31.3780 	    4.0000 	   28.0000 	   56.8178
    0.5875 	   31.4598 	    4.0000 	   28.0000 	   57.1448
    0.5722 	   31.5448 	    4.0000 	   28.0000 	   57.4848
    0.5570 	   31.6250 	    4.0000 	   28.0000 	   57.8058
    0.6332 	   31.7075 	    4.0000 	   28.0000 	   58.1358
    0.6332 	   31.7935 	    4.0000 	   28.0000 	   58.4799
    0.5112 	   31.8750 	    4.0000 	   28.0000 	   58.8059
    0.5264 	   31.9568 	    4.0000 	   28.0000 	   59.1329
    0.6485 	   32.0365 	    4.0000 	   28.0000 	   59.4519
    0.5875 	   32.1183 	    4.0000 	   28.0000 	   59.7789
    0.5875 	   32.1990 	    4.0000 	   29.0000 	    0.1020
    0.5112 	   32.2870 	    4.0000 	   29.0000 	    0.4540
    0.5264 	   32.3730 	    4.0000 	   29.0000 	    0.7980
    0.5417 	   32.4525 	    4.0000 	   29.0000 	    1.1160
    0.4959 	   32.5375 	    4.0000 	   29.0000 	    1.4560
    0.4807 	   32.6198 	    4.0000 	   29.0000 	    1.7850
    0.4807 	   32.7010 	    4.0000 	   29.0000 	    2.1101
    0.5112 	   32.7860 	    4.0000 	   29.0000 	    2.4501
    0.5875 	   32.8733 	    4.0000 	   29.0000 	    2.7991
    0.6027 	   32.9540 	    4.0000 	   29.0000 	    3.1221
    0.5264 	   33.0353 	    4.0000 	   29.0000 	    3.4471
    0.3738 	   33.1153 	    4.0000 	   29.0000 	    3.7672
    0.2365 	   33.1965 	    4.0000 	   29.0000 	    4.0922
    0.4349 	   33.2788 	    4.0000 	   29.0000 	    4.4212
    0.5112 	   33.3610 	    4.0000 	   29.0000 	    4.7502
    0.4044 	   33.4430 	    4.0000 	   29.0000 	    5.0782
    0.5417 	   33.5293 	    4.0000 	   29.0000 	    5.4233
    0.5570 	   33.6150 	    4.0000 	   29.0000 	    5.7663
    0.5112 	   33.6968 	    4.0000 	   29.0000 	    6.0933
    0.4196 	   33.7810 	    4.0000 	   29.0000 	    6.4293
    0.4349 	   33.8638 	    4.0000 	   29.0000 	    6.7603
    0.5417 	   33.9465 	    4.0000 	   29.0000 	    7.0914
    0.3891 	   34.0308 	    4.0000 	   29.0000 	    7.4284
    0.5570 	   34.1125 	    4.0000 	   29.0000 	    7.7554
    0.5570 	   34.1950 	    4.0000 	   29.0000 	    8.0854
    0.5264 	   34.2793 	    4.0000 	   29.0000 	    8.4224
    0.5417 	   34.3610 	    4.0000 	   29.0000 	    8.7494
    0.4501 	   34.4440 	    4.0000 	   29.0000 	    9.0815
    0.3891 	   34.5325 	    4.0000 	   29.0000 	    9.4355
    0.5112 	   34.6205 	    4.0000 	   29.0000 	    9.7875
    0.6180 	   34.7115 	    4.0000 	   29.0000 	   10.1515
    0.4654 	   34.7963 	    4.0000 	   29.0000 	   10.4905
    0.6180 	   34.8825 	    4.0000 	   29.0000 	   10.8356
    0.3738 	   34.9675 	    4.0000 	   29.0000 	   11.1756
    0.5112 	   35.0550 	    4.0000 	   29.0000 	   11.5256
    0.4196 	   35.1405 	    4.0000 	   29.0000 	   11.8676
    0.4349 	   35.2250 	    4.0000 	   29.0000 	   12.2056
    0.5570 	   35.3118 	    4.0000 	   29.0000 	   12.5527
    0.5112 	   35.3990 	    4.0000 	   29.0000 	   12.9017
    0.4959 	   35.4873 	    4.0000 	   29.0000 	   13.2547
    0.4501 	   35.5738 	    4.0000 	   29.0000 	   13.6007
    0.3433 	   35.6615 	    4.0000 	   29.0000 	   13.9517
    0.5875 	   35.7485 	    4.0000 	   29.0000 	   14.2998
    0.4959 	   35.8333 	    4.0000 	   29.0000 	   14.6388
    0.5417 	   35.9195 	    4.0000 	   29.0000 	   14.9838
    0.3738 	   36.0018 	    4.0000 	   29.0000 	   15.3128
    0.4044 	   36.0898 	    4.0000 	   29.0000 	   15.6648
    0.4501 	   36.1763 	    4.0000 	   29.0000 	   16.0109
    0.4807 	   36.2638 	    4.0000 	   29.0000 	   16.3609
    0.4654 	   36.3475 	    4.0000 	   29.0000 	   16.6959
    0.4501 	   36.4340 	    4.0000 	   29.0000 	   17.0419
    0.5875 	   36.5185 	    4.0000 	   29.0000 	   17.3799
    0.6027 	   36.6077 	    4.0000 	   29.0000 	   17.7370
    0.5570 	   36.6920 	    4.0000 	   29.0000 	   18.0740
    0.3891 	   36.7803 	    4.0000 	   29.0000 	   18.4270
    0.3738 	   36.8635 	    4.0000 	   29.0000 	   18.7600
    0.4044 	   36.9478 	    4.0000 	   29.0000 	   19.0970
    0.4654 	   37.0388 	    4.0000 	   29.0000 	   19.4611
    0.4959 	   37.1280 	    4.0000 	   29.0000 	   19.8181
    0.6180 	   37.2150 	    4.0000 	   29.0000 	   20.1661
    0.6180 	   37.3020 	    4.0000 	   29.0000 	   20.5141
    0.6332 	   37.3923 	    4.0000 	   29.0000 	   20.8751
    0.4349 	   37.4778 	    4.0000 	   29.0000 	   21.2172
    0.4501 	   37.5648 	    4.0000 	   29.0000 	   21.5652
    0.4807 	   37.6498 	    4.0000 	   29.0000 	   21.9052
    0.4044 	   37.7345 	    4.0000 	   29.0000 	   22.2442
    0.3891 	   37.8193 	    4.0000 	   29.0000 	   22.5832
    0.3433 	   37.9062 	    4.0000 	   29.0000 	   22.9313
    0.4807 	   37.9928 	    4.0000 	   29.0000 	   23.2773
    0.3738 	   38.0788 	    4.0000 	   29.0000 	   23.6203
    0.5570 	   38.1683 	    4.0000 	   29.0000 	   23.9783
    0.3281 	   38.2525 	    4.0000 	   29.0000 	   24.3153
    0.4349 	   38.3365 	    4.0000 	   29.0000 	   24.6514
    0.3433 	   38.4220 	    4.0000 	   29.0000 	   24.9934
    0.4044 	   38.5055 	    4.0000 	   29.0000 	   25.3274
    0.4349 	   38.5905 	    4.0000 	   29.0000 	   25.6674
    0.3891 	   38.6783 	    4.0000 	   29.0000 	   26.0184
    0.3738 	   38.7635 	    4.0000 	   29.0000 	   26.3595
    0.4959 	   38.8513 	    4.0000 	   29.0000 	   26.7105
    0.3128 	   38.9410 	    4.0000 	   29.0000 	   27.0695
    0.4349 	   39.0288 	    4.0000 	   29.0000 	   27.4205
    0.2518 	   39.1135 	    4.0000 	   29.0000 	   27.7595
    0.3281 	   39.1993 	    4.0000 	   29.0000 	   28.1026
    0.4959 	   39.2890 	    4.0000 	   29.0000 	   28.4616
    0.4044 	   39.3783 	    4.0000 	   29.0000 	   28.8186
    0.3891 	   39.4663 	    4.0000 	   29.0000 	   29.1706
    0.6027 	   39.5530 	    4.0000 	   29.0000 	   29.5176
    0.3433 	   39.6403 	    4.0000 	   29.0000 	   29.8667
    0.4044 	   39.7263 	    4.0000 	   29.0000 	   30.2107
    0.3891 	   39.8185 	    4.0000 	   29.0000 	   30.5797
    0.3281 	   39.9040 	    4.0000 	   29.0000 	   30.9217
    0.3586 	   39.9943 	    4.0000 	   29.0000 	   31.2827
    0.4501 	   40.0843 	    4.0000 	   29.0000 	   31.6428
    0.4196 	   40.1773 	    4.0000 	   29.0000 	   32.0148
    0.4196 	   40.2635 	    4.0000 	   29.0000 	   32.3598
    0.3738 	   40.3528 	    4.0000 	   29.0000 	   32.7168
    0.2823 	   40.4430 	    4.0000 	   29.0000 	   33.0778
    0.2976 	   40.5310 	    4.0000 	   29.0000 	   33.4299
    0.4044 	   40.6185 	    4.0000 	   29.0000 	   33.7799
    0.0839 	   40.7058 	    4.0000 	   29.0000 	   34.1289
    0.4196 	   40.7938 	    4.0000 	   29.0000 	   34.4809
    0.4807 	   40.8813 	    4.0000 	   29.0000 	   34.8309
    0.2823 	   40.9683 	    4.0000 	   29.0000 	   35.1790
    0.3586 	   41.0583 	    4.0000 	   29.0000 	   35.5390
    0.3738 	   41.1525 	    4.0000 	   29.0000 	   35.9160
    0.4349 	   41.2440 	    4.0000 	   29.0000 	   36.2820
    0.4044 	   41.3328 	    4.0000 	   29.0000 	   36.6370
    0.4044 	   41.4233 	    4.0000 	   29.0000 	   36.9991
    0.4196 	   41.5140 	    4.0000 	   29.0000 	   37.3621
    0.2670 	   41.6070 	    4.0000 	   29.0000 	   37.7341
    0.3281 	   41.6950 	    4.0000 	   29.0000 	   38.0861
    0.3281 	   41.7828 	    4.0000 	   29.0000 	   38.4371
    0.2823 	   41.8718 	    4.0000 	   29.0000 	   38.7932
    0.3586 	   41.9618 	    4.0000 	   29.0000 	   39.1532
    0.2518 	   42.0563 	    4.0000 	   29.0000 	   39.5312
    0.4044 	   42.1458 	    4.0000 	   29.0000 	   39.8892
    0.2518 	   42.2393 	    4.0000 	   29.0000 	   40.2632
    0.4196 	   42.3298 	    4.0000 	   29.0000 	   40.6253
    0.2518 	   42.4233 	    4.0000 	   29.0000 	   40.9993
    0.3738 	   42.5163 	    4.0000 	   29.0000 	   41.3703
    0.2823 	   42.6083 	    4.0000 	   29.0000 	   41.7383
    0.3738 	   42.6975 	    4.0000 	   29.0000 	   42.0954
    0.0534 	   42.7885 	    4.0000 	   29.0000 	   42.4594
    0.2060 	   42.8798 	    4.0000 	   29.0000 	   42.8244
    0.2365 	   42.9703 	    4.0000 	   29.0000 	   43.1864
    0.2365 	   43.0650 	    4.0000 	   29.0000 	   43.5654
    0.4044 	   43.1563 	    4.0000 	   29.0000 	   43.9305
    0.4959 	   43.2463 	    4.0000 	   29.0000 	   44.2905
    0.5112 	   43.3435 	    4.0000 	   29.0000 	   44.6795
    0.3891 	   43.4368 	    4.0000 	   29.0000 	   45.0525
    0.4196 	   43.5250 	    4.0000 	   29.0000 	   45.4055
    0.3281 	   43.6158 	    4.0000 	   29.0000 	   45.7686
    0.2976 	   43.7058 	    4.0000 	   29.0000 	   46.1286
    0.4501 	   43.7990 	    4.0000 	   29.0000 	   46.5016
    0.3128 	   43.8875 	    4.0000 	   29.0000 	   46.8556
    0.4501 	   43.9780 	    4.0000 	   29.0000 	   47.2176
    0.4349 	   44.0700 	    4.0000 	   29.0000 	   47.5857
    0.3586 	   44.1645 	    4.0000 	   29.0000 	   47.9627
    0.2823 	   44.2543 	    4.0000 	   29.0000 	   48.3227
    0.4196 	   44.3443 	    4.0000 	   29.0000 	   48.6827
    0.4196 	   44.4395 	    4.0000 	   29.0000 	   49.0638
    0.2823 	   44.5305 	    4.0000 	   29.0000 	   49.4278
    0.3128 	   44.6240 	    4.0000 	   29.0000 	   49.8018
    0.2976 	   44.7173 	    4.0000 	   29.0000 	   50.1748
    0.1755 	   44.8103 	    4.0000 	   29.0000 	   50.5468
    0.2060 	   44.9073 	    4.0000 	   29.0000 	   50.9339
    0.2670 	   45.0028 	    4.0000 	   29.0000 	   51.3169
    0.0839 	   45.0953 	    4.0000 	   29.0000 	   51.6869
    0.3128 	   45.1855 	    4.0000 	   29.0000 	   52.0479
    0.0381 	   45.2803 	    4.0000 	   29.0000 	   52.4269
    0.2823 	   45.3755 	    4.0000 	   29.0000 	   52.8080
    0.2518 	   45.4690 	    4.0000 	   29.0000 	   53.1820
    0.4349 	   45.5635 	    4.0000 	   29.0000 	   53.5600
    0.2670 	   45.6548 	    4.0000 	   29.0000 	   53.9250
    0.4349 	   45.7463 	    4.0000 	   29.0000 	   54.2910
    0.3128 	   45.8358 	    4.0000 	   29.0000 	   54.6491
    0.3586 	   45.9318 	    4.0000 	   29.0000 	   55.0331
    0.2823 	   46.0253 	    4.0000 	   29.0000 	   55.4071
    0.3128 	   46.1175 	    4.0000 	   29.0000 	   55.7761
    0.2670 	   46.2108 	    4.0000 	   29.0000 	   56.1492
    0.1907 	   46.3028 	    4.0000 	   29.0000 	   56.5172
    0.2976 	   46.3933 	    4.0000 	   29.0000 	   56.8792
    0.3586 	   46.4873 	    4.0000 	   29.0000 	   57.2552
    0.5112 	   46.5833 	    4.0000 	   29.0000 	   57.6392
    0.2365 	   46.6843 	    4.0000 	   29.0000 	   58.0433
    0.2060 	   46.7793 	    4.0000 	   29.0000 	   58.4233
    0.1755 	   46.8718 	    4.0000 	   29.0000 	   58.7923
    0.2365 	   46.9663 	    4.0000 	   29.0000 	   59.1703
    0.2976 	   47.0573 	    4.0000 	   29.0000 	   59.5343
    0.2976 	   47.1525 	    4.0000 	   29.0000 	   59.9154
    0.2823 	   47.2450 	    4.0000 	   30.0000 	    0.2854
    0.0076 	   47.3395 	    4.0000 	   30.0000 	    0.6634
    0.2518 	   47.4360 	    4.0000 	   30.0000 	    1.0494
    0.2823 	   47.5295 	    4.0000 	   30.0000 	    1.4235
    0.3128 	   47.6225 	    4.0000 	   30.0000 	    1.7955
    0.2518 	   47.7183 	    4.0000 	   30.0000 	    2.1785
    0.2823 	   47.8140 	    4.0000 	   30.0000 	    2.5615
    0.1755 	   47.9128 	    4.0000 	   30.0000 	    2.9565
    0.3128 	   48.0063 	    4.0000 	   30.0000 	    3.3306
    0.2823 	   48.1013 	    4.0000 	   30.0000 	    3.7106
    0.2670 	   48.1950 	    4.0000 	   30.0000 	    4.0856
    0.3433 	   48.2903 	    4.0000 	   30.0000 	    4.4666
    0.2518 	   48.3903 	    4.0000 	   30.0000 	    4.8667
    0.1907 	   48.4940 	    4.0000 	   30.0000 	    5.2817
    0.2518 	   48.5870 	    4.0000 	   30.0000 	    5.6537
    0.2670 	   48.6800 	    4.0000 	   30.0000 	    6.0257
    0.2518 	   48.7753 	    4.0000 	   30.0000 	    6.4067
    0.2365 	   48.8745 	    4.0000 	   30.0000 	    6.8038
    0.0534 	   48.9685 	    4.0000 	   30.0000 	    7.1798
    0.4044 	   49.0703 	    4.0000 	   30.0000 	    7.5868
    0.3128 	   49.1635 	    4.0000 	   30.0000 	    7.9598
    0.2365 	   49.2590 	    4.0000 	   30.0000 	    8.3419
    0.1450 	   49.3540 	    4.0000 	   30.0000 	    8.7219
    0.2823 	   49.4480 	    4.0000 	   30.0000 	    9.0979
    0.2823 	   49.5455 	    4.0000 	   30.0000 	    9.4879
    0.2976 	   49.6420 	    4.0000 	   30.0000 	    9.8739
    0.2823 	   49.7375 	    4.0000 	   30.0000 	   10.2550
    0.1907 	   49.8293 	    4.0000 	   30.0000 	   10.6230
    0.4349 	   49.9213 	    4.0000 	   30.0000 	   10.9910
    0.2365 	   50.0150 	    4.0000 	   30.0000 	   11.3660
    0.1755 	   50.1135 	    4.0000 	   30.0000 	   11.7600
    0.1450 	   50.2123 	    4.0000 	   30.0000 	   12.1541
    0.1907 	   50.3070 	    4.0000 	   30.0000 	   12.5341
    0.2365 	   50.4043 	    4.0000 	   30.0000 	   12.9231
    0.3586 	   50.4995 	    4.0000 	   30.0000 	   13.3041
    0.1450 	   50.5948 	    4.0000 	   30.0000 	   13.6852
    0.2823 	   50.6910 	    4.0000 	   30.0000 	   14.0702
    0.4044 	   50.7873 	    4.0000 	   30.0000 	   14.4552
    0.2518 	   50.8858 	    4.0000 	   30.0000 	   14.8492
   -0.0992 	   50.9828 	    4.0000 	   30.0000 	   15.2372
    0.1602 	   51.0788 	    4.0000 	   30.0000 	   15.6213
    0.2670 	   51.1725 	    4.0000 	   30.0000 	   15.9963
    0.2213 	   51.2678 	    4.0000 	   30.0000 	   16.3763
    0.1297 	   51.3688 	    4.0000 	   30.0000 	   16.7803
    0.2213 	   51.4653 	    4.0000 	   30.0000 	   17.1664
    0.0687 	   51.5610 	    4.0000 	   30.0000 	   17.5494
    0.2976 	   51.6565 	    4.0000 	   30.0000 	   17.9314
    0.1907 	   51.7528 	    4.0000 	   30.0000 	   18.3164
    0.1450 	   51.8490 	    4.0000 	   30.0000 	   18.7014
    0.1450 	   51.9450 	    4.0000 	   30.0000 	   19.0855
    0.1602 	   52.0430 	    4.0000 	   30.0000 	   19.4775
    0.1602 	   52.1393 	    4.0000 	   30.0000 	   19.8625
    0.3586 	   52.2363 	    4.0000 	   30.0000 	   20.2495
    0.3128 	   52.3335 	    4.0000 	   30.0000 	   20.6396
    0.3281 	   52.4320 	    4.0000 	   30.0000 	   21.0336
    0.2670 	   52.5283 	    4.0000 	   30.0000 	   21.4186
    0.0381 	   52.6263 	    4.0000 	   30.0000 	   21.8106
    0.2060 	   52.7235 	    4.0000 	   30.0000 	   22.1996
    0.1450 	   52.8215 	    4.0000 	   30.0000 	   22.5917
    0.1297 	   52.9188 	    4.0000 	   30.0000 	   22.9807
    0.2823 	   53.0178 	    4.0000 	   30.0000 	   23.3767
    0.2365 	   53.1173 	    4.0000 	   30.0000 	   23.7747
    0.3128 	   53.2123 	    4.0000 	   30.0000 	   24.1548
    0.2060 	   53.3098 	    4.0000 	   30.0000 	   24.5448
    0.2365 	   53.4113 	    4.0000 	   30.0000 	   24.9508
    0.2060 	   53.5100 	    4.0000 	   30.0000 	   25.3458
    0.1755 	   53.6085 	    4.0000 	   30.0000 	   25.7398
    0.2060 	   53.7060 	    4.0000 	   30.0000 	   26.1299
    0.1144 	   53.8038 	    4.0000 	   30.0000 	   26.5209
    0.2365 	   53.9048 	    4.0000 	   30.0000 	   26.9249
    0.2976 	   54.0038 	    4.0000 	   30.0000 	   27.3209
   -0.0076 	   54.1045 	    4.0000 	   30.0000 	   27.7240
    0.1450 	   54.2033 	    4.0000 	   30.0000 	   28.1190
    0.1602 	   54.3020 	    4.0000 	   30.0000 	   28.5140
    0.1450 	   54.4035 	    4.0000 	   30.0000 	   28.9200
    0.1907 	   54.5033 	    4.0000 	   30.0000 	   29.3191
    0.3281 	   54.6008 	    4.0000 	   30.0000 	   29.7091
    0.0839 	   54.6983 	    4.0000 	   30.0000 	   30.0991
    0.0992 	   54.7970 	    4.0000 	   30.0000 	   30.4941
    0.0839 	   54.8975 	    4.0000 	   30.0000 	   30.8961
    0.1144 	   55.0008 	    4.0000 	   30.0000 	   31.3092
    0.2060 	   55.0990 	    4.0000 	   30.0000 	   31.7022
    0.1450 	   55.2020 	    4.0000 	   30.0000 	   32.1142
    0.0687 	   55.3013 	    4.0000 	   30.0000 	   32.5112
    0.2518 	   55.4010 	    4.0000 	   30.0000 	   32.9103
    0.2823 	   55.5005 	    4.0000 	   30.0000 	   33.3083
    0.1450 	   55.5983 	    4.0000 	   30.0000 	   33.6983
    0.0534 	   55.6985 	    4.0000 	   30.0000 	   34.0993
   -0.1450 	   55.7973 	    4.0000 	   30.0000 	   34.4944
    0.1907 	   55.8978 	    4.0000 	   30.0000 	   34.8964
    0.2213 	   55.9995 	    4.0000 	   30.0000 	   35.3034
    0.1755 	   56.0990 	    4.0000 	   30.0000 	   35.7014
    0.1602 	   56.1980 	    4.0000 	   30.0000 	   36.0974
    0.1450 	   56.2960 	    4.0000 	   30.0000 	   36.4895
    0.3128 	   56.3958 	    4.0000 	   30.0000 	   36.8885
    0.1755 	   56.4935 	    4.0000 	   30.0000 	   37.2795
    0.0534 	   56.5953 	    4.0000 	   30.0000 	   37.6865
    0.0229 	   56.6978 	    4.0000 	   30.0000 	   38.0966
    0.3738 	   56.7958 	    4.0000 	   30.0000 	   38.4886
    0.2518 	   56.8983 	    4.0000 	   30.0000 	   38.8986
    0.2365 	   57.0055 	    4.0000 	   30.0000 	   39.3276
    0.1297 	   57.1078 	    4.0000 	   30.0000 	   39.7366
    0.1297 	   57.2065 	    4.0000 	   30.0000 	   40.1317
    0.2823 	   57.3060 	    4.0000 	   30.0000 	   40.5297
    0.0839 	   57.4093 	    4.0000 	   30.0000 	   40.9427
    0.0992 	   57.5108 	    4.0000 	   30.0000 	   41.3487
    0.2365 	   57.6078 	    4.0000 	   30.0000 	   41.7368
    0.1907 	   57.7065 	    4.0000 	   30.0000 	   42.1318
    0.0076 	   57.8070 	    4.0000 	   30.0000 	   42.5338
    0.1907 	   57.9110 	    4.0000 	   30.0000 	   42.9498
    0.0839 	   58.0145 	    4.0000 	   30.0000 	   43.3639
    0.2060 	   58.1165 	    4.0000 	   30.0000 	   43.7719
    0.1907 	   58.2145 	    4.0000 	   30.0000 	   44.1639
   -0.0687 	   58.3148 	    4.0000 	   30.0000 	   44.5649
    0.2060 	   58.4185 	    4.0000 	   30.0000 	   44.9799
    0.1602 	   58.5240 	    4.0000 	   30.0000 	   45.4020
    0.0534 	   58.6243 	    4.0000 	   30.0000 	   45.8030
    0.0839 	   58.7240 	    4.0000 	   30.0000 	   46.2020
    0.1144 	   58.8248 	    4.0000 	   30.0000 	   46.6050
    0.1755 	   58.9248 	    4.0000 	   30.0000 	   47.0051
    0.1450 	   59.0250 	    4.0000 	   30.0000 	   47.4061
    0.3128 	   59.1275 	    4.0000 	   30.0000 	   47.8161
    0.0076 	   59.2308 	    4.0000 	   30.0000 	   48.2291
    0.2365 	   59.3308 	    4.0000 	   30.0000 	   48.6292
    0.2365 	   59.4358 	    4.0000 	   30.0000 	   49.0492
    0.2365 	   59.5380 	    4.0000 	   30.0000 	   49.4572
    0.0534 	   59.6390 	    4.0000 	   30.0000 	   49.8622
    0.0076 	   59.7408 	    4.0000 	   30.0000 	   50.2693
    0.1755 	   59.8435 	    4.0000 	   30.0000 	   50.6803
    0.1297 	   59.9478 	    4.0000 	   30.0000 	   51.0963
    0.0687 	   60.0510 	    4.0000 	   30.0000 	   51.5093
    0.2365 	   60.1560 	    4.0000 	   30.0000 	   51.9293
    0.0381 	   60.2580 	    4.0000 	   30.0000 	   52.3374
    0.0992 	   60.3580 	    4.0000 	   30.0000 	   52.7374
    0.0839 	   60.4158 	    4.0000 	   30.0000 	   52.9684