File: instron/deadline/size/bare_15_1_new/bare_15_1_60_120.txt
Thayer School of Engineering        Instron 4442 Mechanical Testing System
7/9/2018 2:31:15 AM

  Force (N)	Extension (mm)	Not Used	Not Used	Not Used	     Hour	    Minute	    Second
    0.2670 	    2.0660 	    2.0000 	   31.0000 	   43.3074
    0.4196 	    2.2420 	    2.0000 	   31.0000 	   43.3954
    0.4349 	    2.4740 	    2.0000 	   31.0000 	   43.5114
    0.4654 	    2.6820 	    2.0000 	   31.0000 	   43.6154
    0.4349 	    2.8880 	    2.0000 	   31.0000 	   43.7184
    0.4807 	    3.0400 	    2.0000 	   31.0000 	   43.7944
    0.3586 	    3.2020 	    2.0000 	   31.0000 	   43.8754
    0.4959 	    3.4200 	    2.0000 	   31.0000 	   43.9844
    0.4959 	    3.5960 	    2.0000 	   31.0000 	   44.0724
    0.3891 	    3.8040 	    2.0000 	   31.0000 	   44.1764
    0.3891 	    3.9660 	    2.0000 	   31.0000 	   44.2574
    0.3281 	    4.1680 	    2.0000 	   31.0000 	   44.3584
    0.4501 	    4.3420 	    2.0000 	   31.0000 	   44.4454
    0.4501 	    4.5560 	    2.0000 	   31.0000 	   44.5524
    0.4501 	    4.7720 	    2.0000 	   31.0000 	   44.6604
    0.4196 	    4.9820 	    2.0000 	   31.0000 	   44.7654
    0.5875 	    5.2080 	    2.0000 	   31.0000 	   44.8784
    0.3891 	    5.4220 	    2.0000 	   31.0000 	   44.9855
    0.1755 	    5.6500 	    2.0000 	   31.0000 	   45.0995
    0.4196 	    5.8620 	    2.0000 	   31.0000 	   45.2055
    0.3738 	    6.0660 	    2.0000 	   31.0000 	   45.3075
    0.2213 	    6.1920 	    2.0000 	   31.0000 	   45.3705
    0.4654 	    6.4220 	    2.0000 	   31.0000 	   45.4855
    0.3738 	    6.5540 	    2.0000 	   31.0000 	   45.5515
    0.4654 	    6.6760 	    2.0000 	   31.0000 	   45.6125
    0.5722 	    6.8060 	    2.0000 	   31.0000 	   45.6775
    0.5112 	    6.9400 	    2.0000 	   31.0000 	   45.7435
    0.2365 	    7.0720 	    2.0000 	   31.0000 	   45.8105
    0.4196 	    7.2060 	    2.0000 	   31.0000 	   45.8775
    0.3433 	    7.3420 	    2.0000 	   31.0000 	   45.9455
    0.5570 	    7.4720 	    2.0000 	   31.0000 	   46.0105
    0.4349 	    7.5980 	    2.0000 	   31.0000 	   46.0735
    0.5722 	    7.7300 	    2.0000 	   31.0000 	   46.1395
    0.4196 	    7.8660 	    2.0000 	   31.0000 	   46.2075
    0.4654 	    8.0000 	    2.0000 	   31.0000 	   46.2745
    0.5264 	    8.1360 	    2.0000 	   31.0000 	   46.3425
    0.3738 	    8.2660 	    2.0000 	   31.0000 	   46.4075
    0.4349 	    8.4020 	    2.0000 	   31.0000 	   46.4755
    0.6332 	    8.5300 	    2.0000 	   31.0000 	   46.5395
    0.2823 	    8.7060 	    2.0000 	   31.0000 	   46.6275
    0.5264 	    8.8320 	    2.0000 	   31.0000 	   46.6906
    0.5875 	    8.9580 	    2.0000 	   31.0000 	   46.7536
    0.4959 	    9.0860 	    2.0000 	   31.0000 	   46.8176
    0.3738 	    9.2120 	    2.0000 	   31.0000 	   46.8806
    0.4654 	    9.3360 	    2.0000 	   31.0000 	   46.9426
    0.4959 	    9.4680 	    2.0000 	   31.0000 	   47.0086
    0.3891 	    9.5920 	    2.0000 	   31.0000 	   47.0706
    0.4807 	    9.7200 	    2.0000 	   31.0000 	   47.1346
    0.4501 	    9.8540 	    2.0000 	   31.0000 	   47.2016
    0.5112 	    9.9820 	    2.0000 	   31.0000 	   47.2656
    0.3738 	   10.1100 	    2.0000 	   31.0000 	   47.3296
    0.2213 	   10.2440 	    2.0000 	   31.0000 	   47.3966
    0.4959 	   10.3620 	    2.0000 	   31.0000 	   47.4556
    0.4044 	   10.4740 	    2.0000 	   31.0000 	   47.5116
    0.3586 	   10.6020 	    2.0000 	   31.0000 	   47.5756
    0.4196 	   10.7280 	    2.0000 	   31.0000 	   47.6386
    0.5264 	   10.8460 	    2.0000 	   31.0000 	   47.6976
    0.5112 	   10.9740 	    2.0000 	   31.0000 	   47.7616
    0.4959 	   11.0960 	    2.0000 	   31.0000 	   47.8226
    0.6027 	   11.2260 	    2.0000 	   31.0000 	   47.8876
    0.5722 	   11.3540 	    2.0000 	   31.0000 	   47.9516
    0.6485 	   11.4760 	    2.0000 	   31.0000 	   48.0126
    0.1450 	   11.6000 	    2.0000 	   31.0000 	   48.0746
    0.4501 	   11.7280 	    2.0000 	   31.0000 	   48.1386
    0.5112 	   11.8520 	    2.0000 	   31.0000 	   48.2006
    0.5875 	   11.9720 	    2.0000 	   31.0000 	   48.2606
    0.4959 	   12.1000 	    2.0000 	   31.0000 	   48.3246
    0.3738 	   12.2300 	    2.0000 	   31.0000 	   48.3897
    0.4654 	   12.3580 	    2.0000 	   31.0000 	   48.4537
    0.3738 	   12.4820 	    2.0000 	   31.0000 	   48.5157
    0.5264 	   12.6120 	    2.0000 	   31.0000 	   48.5807
    0.4044 	   12.7680 	    2.0000 	   31.0000 	   48.6587
    0.3738 	   12.8880 	    2.0000 	   31.0000 	   48.7187
    0.6638 	   13.0100 	    2.0000 	   31.0000 	   48.7797
    0.5264 	   13.1420 	    2.0000 	   31.0000 	   48.8457
    0.4654 	   13.2660 	    2.0000 	   31.0000 	   48.9077
    0.3128 	   13.3920 	    2.0000 	   31.0000 	   48.9707
    0.5264 	   13.5180 	    2.0000 	   31.0000 	   49.0337
    0.4044 	   13.6460 	    2.0000 	   31.0000 	   49.0977
    0.5570 	   13.7780 	    2.0000 	   31.0000 	   49.1637
    0.4044 	   13.9040 	    2.0000 	   31.0000 	   49.2267
    0.5875 	   14.0340 	    2.0000 	   31.0000 	   49.2917
    0.4654 	   14.1600 	    2.0000 	   31.0000 	   49.3547
    0.4196 	   14.2840 	    2.0000 	   31.0000 	   49.4167
    0.5722 	   14.4140 	    2.0000 	   31.0000 	   49.4817
    0.4349 	   14.5460 	    2.0000 	   31.0000 	   49.5477
    0.5875 	   14.6780 	    2.0000 	   31.0000 	   49.6137
    0.6485 	   14.8040 	    2.0000 	   31.0000 	   49.6767
    0.4807 	   14.9340 	    2.0000 	   31.0000 	   49.7417
    0.5570 	   15.0660 	    2.0000 	   31.0000 	   49.8077
    0.3738 	   15.1960 	    2.0000 	   31.0000 	   49.8727
    0.5722 	   15.3180 	    2.0000 	   31.0000 	   49.9337
    0.5112 	   15.4460 	    2.0000 	   31.0000 	   49.9977
    0.5875 	   15.5740 	    2.0000 	   31.0000 	   50.0617
    0.5722 	   15.7020 	    2.0000 	   31.0000 	   50.1258
    0.5112 	   15.8280 	    2.0000 	   31.0000 	   50.1888
    0.5417 	   15.9620 	    2.0000 	   31.0000 	   50.2558
    0.4501 	   16.0900 	    2.0000 	   31.0000 	   50.3198
    0.5264 	   16.2260 	    2.0000 	   31.0000 	   50.3878
    0.3738 	   16.3580 	    2.0000 	   31.0000 	   50.4538
    0.4349 	   16.4800 	    2.0000 	   31.0000 	   50.5148
    0.5112 	   16.6140 	    2.0000 	   31.0000 	   50.5818
    0.4501 	   16.7680 	    2.0000 	   31.0000 	   50.6588
    0.5875 	   16.8960 	    2.0000 	   31.0000 	   50.7228
    0.4196 	   17.0280 	    2.0000 	   31.0000 	   50.7888
    0.5417 	   17.1620 	    2.0000 	   31.0000 	   50.8558
    0.4196 	   17.2860 	    2.0000 	   31.0000 	   50.9178
    0.5417 	   17.4160 	    2.0000 	   31.0000 	   50.9828
    0.4959 	   17.5420 	    2.0000 	   31.0000 	   51.0458
    0.3891 	   17.6760 	    2.0000 	   31.0000 	   51.1128
    0.6485 	   17.7960 	    2.0000 	   31.0000 	   51.1728
    0.6332 	   17.9280 	    2.0000 	   31.0000 	   51.2388
    0.5417 	   18.0480 	    2.0000 	   31.0000 	   51.2988
    0.5570 	   18.1800 	    2.0000 	   31.0000 	   51.3648
    0.6332 	   18.3020 	    2.0000 	   31.0000 	   51.4258
    0.3891 	   18.4380 	    2.0000 	   31.0000 	   51.4938
    0.6638 	   18.5580 	    2.0000 	   31.0000 	   51.5538
    0.6790 	   18.6900 	    2.0000 	   31.0000 	   51.6198
    0.5417 	   18.8120 	    2.0000 	   31.0000 	   51.6808
    0.4807 	   18.9480 	    2.0000 	   31.0000 	   51.7488
    0.4959 	   19.0780 	    2.0000 	   31.0000 	   51.8138
    0.4959 	   19.2100 	    2.0000 	   31.0000 	   51.8799
    0.1602 	   19.3380 	    2.0000 	   31.0000 	   51.9439
    0.4044 	   19.4720 	    2.0000 	   31.0000 	   52.0109
    0.5264 	   19.6020 	    2.0000 	   31.0000 	   52.0759
    0.5112 	   19.7380 	    2.0000 	   31.0000 	   52.1439
    0.5264 	   19.8640 	    2.0000 	   31.0000 	   52.2069
    0.5570 	   19.9920 	    2.0000 	   31.0000 	   52.2709
    0.3433 	   20.1160 	    2.0000 	   31.0000 	   52.3329
    0.7401 	   20.2520 	    2.0000 	   31.0000 	   52.4009
    0.5722 	   20.3840 	    2.0000 	   31.0000 	   52.4669
    0.5570 	   20.5080 	    2.0000 	   31.0000 	   52.5289
    0.5875 	   20.6400 	    2.0000 	   31.0000 	   52.5949
    0.4501 	   20.7680 	    2.0000 	   31.0000 	   52.6589
    0.3128 	   20.8920 	    2.0000 	   31.0000 	   52.7209
    0.5875 	   21.0200 	    2.0000 	   31.0000 	   52.7849
    0.4196 	   21.1520 	    2.0000 	   31.0000 	   52.8509
    0.4501 	   21.2800 	    2.0000 	   31.0000 	   52.9149
    0.5875 	   21.4140 	    2.0000 	   31.0000 	   52.9819
    0.5264 	   21.5440 	    2.0000 	   31.0000 	   53.0469
    0.7706 	   21.6760 	    2.0000 	   31.0000 	   53.1129
    0.5112 	   21.8040 	    2.0000 	   31.0000 	   53.1769
    0.5722 	   21.9300 	    2.0000 	   31.0000 	   53.2399
    0.5875 	   22.0560 	    2.0000 	   31.0000 	   53.3029
    0.6943 	   22.1920 	    2.0000 	   31.0000 	   53.3709
    0.6638 	   22.3120 	    2.0000 	   31.0000 	   53.4309
    0.5875 	   22.4420 	    2.0000 	   31.0000 	   53.4959
    0.5570 	   22.5700 	    2.0000 	   31.0000 	   53.5599
    0.5264 	   22.7060 	    2.0000 	   31.0000 	   53.6280
    0.6332 	   22.8320 	    2.0000 	   31.0000 	   53.6910
    0.2823 	   22.9620 	    2.0000 	   31.0000 	   53.7560
    0.4654 	   23.0860 	    2.0000 	   31.0000 	   53.8180
    0.6332 	   23.2240 	    2.0000 	   31.0000 	   53.8870
    0.5722 	   23.3540 	    2.0000 	   31.0000 	   53.9520
    0.4501 	   23.4860 	    2.0000 	   31.0000 	   54.0180
    0.4807 	   23.6140 	    2.0000 	   31.0000 	   54.0820
    0.6027 	   23.7480 	    2.0000 	   31.0000 	   54.1490
    0.4501 	   23.8780 	    2.0000 	   31.0000 	   54.2140
    0.5875 	   24.0100 	    2.0000 	   31.0000 	   54.2800
    0.6180 	   24.1400 	    2.0000 	   31.0000 	   54.3450
    0.6638 	   24.2680 	    2.0000 	   31.0000 	   54.4090
    0.6332 	   24.3960 	    2.0000 	   31.0000 	   54.4730
    0.6332 	   24.5240 	    2.0000 	   31.0000 	   54.5370
    0.6180 	   24.6620 	    2.0000 	   31.0000 	   54.6060
    0.5722 	   24.7860 	    2.0000 	   31.0000 	   54.6680
    0.7706 	   24.9140 	    2.0000 	   31.0000 	   54.7320
    0.4501 	   25.0420 	    2.0000 	   31.0000 	   54.7960
    0.6332 	   25.1800 	    2.0000 	   31.0000 	   54.8650
    0.6790 	   25.3160 	    2.0000 	   31.0000 	   54.9330
    0.6180 	   25.4420 	    2.0000 	   31.0000 	   54.9960
    0.5722 	   25.5740 	    2.0000 	   31.0000 	   55.0620
    0.5264 	   25.7060 	    2.0000 	   31.0000 	   55.1280
    0.3433 	   25.8400 	    2.0000 	   31.0000 	   55.1950
    0.5570 	   25.9660 	    2.0000 	   31.0000 	   55.2580
    0.4349 	   26.1040 	    2.0000 	   31.0000 	   55.3270
    0.8011 	   26.2400 	    2.0000 	   31.0000 	   55.3951
    0.3738 	   26.3700 	    2.0000 	   31.0000 	   55.4601
    0.7248 	   26.5020 	    2.0000 	   31.0000 	   55.5261
    0.6180 	   26.6360 	    2.0000 	   31.0000 	   55.5931
    0.2518 	   26.7640 	    2.0000 	   31.0000 	   55.6571
    0.5264 	   26.8980 	    2.0000 	   31.0000 	   55.7241
    0.6027 	   27.0240 	    2.0000 	   31.0000 	   55.7871
    0.6332 	   27.1600 	    2.0000 	   31.0000 	   55.8551
    0.5264 	   27.2880 	    2.0000 	   31.0000 	   55.9191
    0.5112 	   27.4200 	    2.0000 	   31.0000 	   55.9851
    0.5417 	   27.5540 	    2.0000 	   31.0000 	   56.0521
    0.8164 	   27.6920 	    2.0000 	   31.0000 	   56.1211
    0.5570 	   27.8300 	    2.0000 	   31.0000 	   56.1901
    0.6485 	   27.9580 	    2.0000 	   31.0000 	   56.2541
    0.4959 	   28.0880 	    2.0000 	   31.0000 	   56.3191
    0.4959 	   28.2260 	    2.0000 	   31.0000 	   56.3881
    0.4349 	   28.3560 	    2.0000 	   31.0000 	   56.4531
    0.5264 	   28.4880 	    2.0000 	   31.0000 	   56.5191
    0.7401 	   28.6160 	    2.0000 	   31.0000 	   56.5831
    0.8316 	   28.7660 	    2.0000 	   31.0000 	   56.6581
    0.6485 	   28.8980 	    2.0000 	   31.0000 	   56.7241
    0.6638 	   29.0260 	    2.0000 	   31.0000 	   56.7881
    0.6180 	   29.1680 	    2.0000 	   31.0000 	   56.8591
    0.6485 	   29.3000 	    2.0000 	   31.0000 	   56.9251
    0.6943 	   29.4280 	    2.0000 	   31.0000 	   56.9891
    0.7706 	   29.5600 	    2.0000 	   31.0000 	   57.0541
    0.7095 	   29.6920 	    2.0000 	   31.0000 	   57.1212
    0.5875 	   29.8220 	    2.0000 	   31.0000 	   57.1862
    0.5264 	   29.9520 	    2.0000 	   31.0000 	   57.2512
    0.6790 	   30.0820 	    2.0000 	   31.0000 	   57.3162
    0.6790 	   30.2240 	    2.0000 	   31.0000 	   57.3872
    0.6180 	   30.3540 	    2.0000 	   31.0000 	   57.4522
    0.4196 	   30.4780 	    2.0000 	   31.0000 	   57.5142
    0.7553 	   30.6080 	    2.0000 	   31.0000 	   57.5792
    0.8316 	   30.7500 	    2.0000 	   31.0000 	   57.6502
    0.6790 	   30.8780 	    2.0000 	   31.0000 	   57.7142
    0.4807 	   31.0060 	    2.0000 	   31.0000 	   57.7782
    0.6180 	   31.1440 	    2.0000 	   31.0000 	   57.8472
    0.6790 	   31.2760 	    2.0000 	   31.0000 	   57.9132
    0.5570 	   31.4040 	    2.0000 	   31.0000 	   57.9772
    0.3738 	   31.5400 	    2.0000 	   31.0000 	   58.0452
    0.4959 	   31.6820 	    2.0000 	   31.0000 	   58.1162
    0.6790 	   31.8100 	    2.0000 	   31.0000 	   58.1802
    0.6332 	   31.9400 	    2.0000 	   31.0000 	   58.2452
    0.5570 	   32.0780 	    2.0000 	   31.0000 	   58.3132
    0.6485 	   32.2220 	    2.0000 	   31.0000 	   58.3852
    0.8927 	   32.3560 	    2.0000 	   31.0000 	   58.4522
    0.7401 	   32.4900 	    2.0000 	   31.0000 	   58.5192
    0.6943 	   32.6260 	    2.0000 	   31.0000 	   58.5872
    0.7095 	   32.7680 	    2.0000 	   31.0000 	   58.6582
    0.6332 	   32.9080 	    2.0000 	   31.0000 	   58.7282
    0.6485 	   33.0400 	    2.0000 	   31.0000 	   58.7942
    0.2976 	   33.1860 	    2.0000 	   31.0000 	   58.8672
    0.6027 	   33.3160 	    2.0000 	   31.0000 	   58.9323
    0.6638 	   33.4460 	    2.0000 	   31.0000 	   58.9973
    0.6332 	   33.5760 	    2.0000 	   31.0000 	   59.0623
    0.6790 	   33.7140 	    2.0000 	   31.0000 	   59.1313
    0.6332 	   33.8460 	    2.0000 	   31.0000 	   59.1973
    0.6485 	   33.9780 	    2.0000 	   31.0000 	   59.2633
    0.6790 	   34.1100 	    2.0000 	   31.0000 	   59.3293
    0.6485 	   34.2500 	    2.0000 	   31.0000 	   59.3993
    0.6332 	   34.3840 	    2.0000 	   31.0000 	   59.4663
    0.5875 	   34.5140 	    2.0000 	   31.0000 	   59.5313
    0.6332 	   34.6460 	    2.0000 	   31.0000 	   59.5973
    0.6638 	   34.7840 	    2.0000 	   31.0000 	   59.6663
    0.3891 	   34.9160 	    2.0000 	   31.0000 	   59.7323
    0.6485 	   35.0540 	    2.0000 	   31.0000 	   59.8013
    0.5722 	   35.1940 	    2.0000 	   31.0000 	   59.8713
    0.6638 	   35.3260 	    2.0000 	   31.0000 	   59.9373
    0.6790 	   35.4600 	    2.0000 	   32.0000 	    0.0043
    0.9079 	   35.5800 	    2.0000 	   32.0000 	    0.0643
    0.6180 	   35.6960 	    2.0000 	   32.0000 	    0.1223
    0.6332 	   35.8180 	    2.0000 	   32.0000 	    0.1833
    0.6180 	   35.9500 	    2.0000 	   32.0000 	    0.2493
    0.6790 	   36.0660 	    2.0000 	   32.0000 	    0.3073
    0.6943 	   36.1940 	    2.0000 	   32.0000 	    0.3713
    0.7095 	   36.3260 	    2.0000 	   32.0000 	    0.4373
    0.6943 	   36.4600 	    2.0000 	   32.0000 	    0.5043
    0.6638 	   36.5940 	    2.0000 	   32.0000 	    0.5713
    0.7706 	   36.7340 	    2.0000 	   32.0000 	    0.6414
    0.6638 	   36.8640 	    2.0000 	   32.0000 	    0.7064
    0.6180 	   37.0000 	    2.0000 	   32.0000 	    0.7744
    0.6790 	   37.1360 	    2.0000 	   32.0000 	    0.8424
    0.6943 	   37.2780 	    2.0000 	   32.0000 	    0.9134
    0.6485 	   37.4140 	    2.0000 	   32.0000 	    0.9814
    0.7553 	   37.5500 	    2.0000 	   32.0000 	    1.0494
    0.6790 	   37.6780 	    2.0000 	   32.0000 	    1.1134
    0.7095 	   37.8160 	    2.0000 	   32.0000 	    1.1824
    0.8316 	   37.9500 	    2.0000 	   32.0000 	    1.2494
    0.7401 	   38.0860 	    2.0000 	   32.0000 	    1.3174
    0.6943 	   38.2300 	    2.0000 	   32.0000 	    1.3894
    0.6485 	   38.3660 	    2.0000 	   32.0000 	    1.4574
    0.7095 	   38.4960 	    2.0000 	   32.0000 	    1.5224
    0.7553 	   38.6300 	    2.0000 	   32.0000 	    1.5894
    0.7095 	   38.7660 	    2.0000 	   32.0000 	    1.6574
    0.6790 	   38.9000 	    2.0000 	   32.0000 	    1.7244
    0.6638 	   39.0280 	    2.0000 	   32.0000 	    1.7884
    0.8774 	   39.1640 	    2.0000 	   32.0000 	    1.8564
    0.7858 	   39.2940 	    2.0000 	   32.0000 	    1.9214
    0.6943 	   39.4300 	    2.0000 	   32.0000 	    1.9894
    0.6638 	   39.5620 	    2.0000 	   32.0000 	    2.0554
    0.7401 	   39.7040 	    2.0000 	   32.0000 	    2.1264
    0.6790 	   39.8360 	    2.0000 	   32.0000 	    2.1924
    0.6332 	   39.9720 	    2.0000 	   32.0000 	    2.2604
    0.9232 	   40.1060 	    2.0000 	   32.0000 	    2.3274
    0.7095 	   40.2480 	    2.0000 	   32.0000 	    2.3985
    0.7401 	   40.3880 	    2.0000 	   32.0000 	    2.4685
    0.6943 	   40.5280 	    2.0000 	   32.0000 	    2.5385
    0.4959 	   40.6600 	    2.0000 	   32.0000 	    2.6045
    0.7248 	   40.7980 	    2.0000 	   32.0000 	    2.6735
    0.6943 	   40.9360 	    2.0000 	   32.0000 	    2.7425
    0.7706 	   41.0740 	    2.0000 	   32.0000 	    2.8115
    0.7401 	   41.2200 	    2.0000 	   32.0000 	    2.8845
    0.6485 	   41.3520 	    2.0000 	   32.0000 	    2.9505
    0.6485 	   41.4920 	    2.0000 	   32.0000 	    3.0205
    0.7858 	   41.6260 	    2.0000 	   32.0000 	    3.0875
    0.7248 	   41.7680 	    2.0000 	   32.0000 	    3.1585
    0.7858 	   41.9020 	    2.0000 	   32.0000 	    3.2255
    0.8469 	   42.0420 	    2.0000 	   32.0000 	    3.2955
    0.9537 	   42.1820 	    2.0000 	   32.0000 	    3.3655
    0.7553 	   42.3200 	    2.0000 	   32.0000 	    3.4345
    0.7401 	   42.4540 	    2.0000 	   32.0000 	    3.5015
    0.8164 	   42.5900 	    2.0000 	   32.0000 	    3.5695
    0.7858 	   42.7280 	    2.0000 	   32.0000 	    3.6385
    0.7706 	   42.8680 	    2.0000 	   32.0000 	    3.7085
    0.7858 	   43.0020 	    2.0000 	   32.0000 	    3.7755
    0.8927 	   43.1440 	    2.0000 	   32.0000 	    3.8465
    0.8774 	   43.2820 	    2.0000 	   32.0000 	    3.9155
    0.7858 	   43.4200 	    2.0000 	   32.0000 	    3.9845
    0.8621 	   43.5500 	    2.0000 	   32.0000 	    4.0495
    0.8316 	   43.6880 	    2.0000 	   32.0000 	    4.1186
    0.7858 	   43.8240 	    2.0000 	   32.0000 	    4.1866
    0.8316 	   43.9600 	    2.0000 	   32.0000 	    4.2546
    0.8011 	   44.1040 	    2.0000 	   32.0000 	    4.3266
    0.8927 	   44.2460 	    2.0000 	   32.0000 	    4.3976
    0.7553 	   44.3880 	    2.0000 	   32.0000 	    4.4686
    0.8316 	   44.5220 	    2.0000 	   32.0000 	    4.5356
    0.7858 	   44.6600 	    2.0000 	   32.0000 	    4.6046
    0.9232 	   44.7940 	    2.0000 	   32.0000 	    4.6716
    0.8621 	   44.9300 	    2.0000 	   32.0000 	    4.7396
    0.8316 	   45.0700 	    2.0000 	   32.0000 	    4.8096
    0.6790 	   45.2140 	    2.0000 	   32.0000 	    4.8816
    0.8621 	   45.3520 	    2.0000 	   32.0000 	    4.9506
    0.8316 	   45.4880 	    2.0000 	   32.0000 	    5.0186
    0.8011 	   45.6300 	    2.0000 	   32.0000 	    5.0896
    0.9232 	   45.7640 	    2.0000 	   32.0000 	    5.1566
    0.8469 	   45.8860 	    2.0000 	   32.0000 	    5.2176
    0.8469 	   46.0260 	    2.0000 	   32.0000 	    5.2876
    0.8469 	   46.1760 	    2.0000 	   32.0000 	    5.3626
    0.8621 	   46.3060 	    2.0000 	   32.0000 	    5.4276
    0.8621 	   46.4360 	    2.0000 	   32.0000 	    5.4926
    0.8164 	   46.5700 	    2.0000 	   32.0000 	    5.5596
    0.8774 	   46.6920 	    2.0000 	   32.0000 	    5.6206
    0.8621 	   46.8260 	    2.0000 	   32.0000 	    5.6876
    0.8774 	   46.9700 	    2.0000 	   32.0000 	    5.7596
    0.8316 	   47.1040 	    2.0000 	   32.0000 	    5.8266
    0.7706 	   47.2560 	    2.0000 	   32.0000 	    5.9027
    0.8469 	   47.3880 	    2.0000 	   32.0000 	    5.9687
    0.8469 	   47.5260 	    2.0000 	   32.0000 	    6.0377
    0.6943 	   47.6640 	    2.0000 	   32.0000 	    6.1067
    0.9842 	   47.7960 	    2.0000 	   32.0000 	    6.1727
    0.8164 	   47.9320 	    2.0000 	   32.0000 	    6.2407
    0.8316 	   48.0600 	    2.0000 	   32.0000 	    6.3047
    0.8316 	   48.1840 	    2.0000 	   32.0000 	    6.3667
    0.8774 	   48.3080 	    2.0000 	   32.0000 	    6.4287
    0.8927 	   48.4420 	    2.0000 	   32.0000 	    6.4957
    0.8316 	   48.5820 	    2.0000 	   32.0000 	    6.5657
    0.7706 	   48.7220 	    2.0000 	   32.0000 	    6.6357
    1.0300 	   48.8620 	    2.0000 	   32.0000 	    6.7057
    1.0452 	   49.0020 	    2.0000 	   32.0000 	    6.7757
    0.9232 	   49.1480 	    2.0000 	   32.0000 	    6.8487
    1.0147 	   49.2860 	    2.0000 	   32.0000 	    6.9177
    0.9995 	   49.4240 	    2.0000 	   32.0000 	    6.9867
    0.8164 	   49.5620 	    2.0000 	   32.0000 	    7.0557
    1.0452 	   49.6980 	    2.0000 	   32.0000 	    7.1237
    1.0605 	   49.8380 	    2.0000 	   32.0000 	    7.1937
    0.9537 	   49.9780 	    2.0000 	   32.0000 	    7.2637
    1.0605 	   50.1120 	    2.0000 	   32.0000 	    7.3307
    1.0605 	   50.2600 	    2.0000 	   32.0000 	    7.4047
    0.9537 	   50.3980 	    2.0000 	   32.0000 	    7.4737
    0.9537 	   50.5360 	    2.0000 	   32.0000 	    7.5427
    0.9079 	   50.6720 	    2.0000 	   32.0000 	    7.6108
    0.9995 	   50.8080 	    2.0000 	   32.0000 	    7.6788
    0.8927 	   50.9440 	    2.0000 	   32.0000 	    7.7468
    0.9384 	   51.0820 	    2.0000 	   32.0000 	    7.8158
    0.8927 	   51.2340 	    2.0000 	   32.0000 	    7.8918
    1.0452 	   51.3720 	    2.0000 	   32.0000 	    7.9608
    0.9995 	   51.5100 	    2.0000 	   32.0000 	    8.0298
    0.6943 	   51.6440 	    2.0000 	   32.0000 	    8.0968
    0.9842 	   51.7900 	    2.0000 	   32.0000 	    8.1698
    1.0147 	   51.9300 	    2.0000 	   32.0000 	    8.2398
    1.0147 	   52.0700 	    2.0000 	   32.0000 	    8.3098
    1.0452 	   52.2140 	    2.0000 	   32.0000 	    8.3818
    0.9384 	   52.3580 	    2.0000 	   32.0000 	    8.4538
    1.0758 	   52.4980 	    2.0000 	   32.0000 	    8.5238
    1.1215 	   52.6360 	    2.0000 	   32.0000 	    8.5928
    0.9384 	   52.7760 	    2.0000 	   32.0000 	    8.6628
    1.0452 	   52.9180 	    2.0000 	   32.0000 	    8.7338
    0.9995 	   53.0560 	    2.0000 	   32.0000 	    8.8028
    1.0452 	   53.2000 	    2.0000 	   32.0000 	    8.8748
    1.0300 	   53.3400 	    2.0000 	   32.0000 	    8.9448
    1.0910 	   53.4820 	    2.0000 	   32.0000 	    9.0158
    0.8621 	   53.6300 	    2.0000 	   32.0000 	    9.0898
    1.0605 	   53.7640 	    2.0000 	   32.0000 	    9.1568
    0.9537 	   53.9020 	    2.0000 	   32.0000 	    9.2258
    1.0910 	   54.0460 	    2.0000 	   32.0000 	    9.2978
    1.1673 	   54.1920 	    2.0000 	   32.0000 	    9.3709
    0.9842 	   54.3320 	    2.0000 	   32.0000 	    9.4409
    0.9537 	   54.4720 	    2.0000 	   32.0000 	    9.5109
    1.0147 	   54.6140 	    2.0000 	   32.0000 	    9.5819
    1.0452 	   54.7480 	    2.0000 	   32.0000 	    9.6489
    0.8011 	   54.8840 	    2.0000 	   32.0000 	    9.7169
    1.0300 	   55.0200 	    2.0000 	   32.0000 	    9.7849
    0.9995 	   55.1660 	    2.0000 	   32.0000 	    9.8579
    1.1063 	   55.3080 	    2.0000 	   32.0000 	    9.9289
    1.0147 	   55.4460 	    2.0000 	   32.0000 	    9.9979
    1.0758 	   55.5880 	    2.0000 	   32.0000 	   10.0689
    1.0452 	   55.7320 	    2.0000 	   32.0000 	   10.1409
    1.1215 	   55.8640 	    2.0000 	   32.0000 	   10.2069
    1.1521 	   56.0000 	    2.0000 	   32.0000 	   10.2749
    1.1826 	   56.1540 	    2.0000 	   32.0000 	   10.3519
    1.0910 	   56.2980 	    2.0000 	   32.0000 	   10.4239
    1.2284 	   56.4420 	    2.0000 	   32.0000 	   10.4959
    1.2284 	   56.5840 	    2.0000 	   32.0000 	   10.5669
    1.2894 	   56.7220 	    2.0000 	   32.0000 	   10.6359
    1.0910 	   56.8580 	    2.0000 	   32.0000 	   10.7039
    1.1368 	   56.9960 	    2.0000 	   32.0000 	   10.7729
    1.1368 	   57.1420 	    2.0000 	   32.0000 	   10.8459
    1.3046 	   57.2880 	    2.0000 	   32.0000 	   10.9189
    1.1215 	   57.4320 	    2.0000 	   32.0000 	   10.9909
    1.0910 	   57.5720 	    2.0000 	   32.0000 	   11.0609
    1.2284 	   57.7140 	    2.0000 	   32.0000 	   11.1320
    1.1215 	   57.8500 	    2.0000 	   32.0000 	   11.2000
    1.3352 	   57.9920 	    2.0000 	   32.0000 	   11.2710
    1.3046 	   58.1320 	    2.0000 	   32.0000 	   11.3410
    1.1978 	   58.2840 	    2.0000 	   32.0000 	   11.4170
    1.0452 	   58.4220 	    2.0000 	   32.0000 	   11.4860
    1.1673 	   58.5620 	    2.0000 	   32.0000 	   11.5560
    1.1978 	   58.6960 	    2.0000 	   32.0000 	   11.6230
    1.1063 	   58.8380 	    2.0000 	   32.0000 	   11.6940
    1.1521 	   58.9800 	    2.0000 	   32.0000 	   11.7650
    1.0910 	   59.1180 	    2.0000 	   32.0000 	   11.8340
    1.1978 	   59.2680 	    2.0000 	   32.0000 	   11.9090
    1.1063 	   59.4040 	    2.0000 	   32.0000 	   11.9770
    1.1978 	   59.5520 	    2.0000 	   32.0000 	   12.0510
    1.1521 	   59.6880 	    2.0000 	   32.0000 	   12.1190
    1.2741 	   59.8280 	    2.0000 	   32.0000 	   12.1890
    1.1215 	   59.9700 	    2.0000 	   32.0000 	   12.2600
    0.9842 	   60.1140 	    2.0000 	   32.0000 	   12.3320
    1.0758 	   60.2600 	    2.0000 	   32.0000 	   12.4050
    1.0758 	   60.4000 	    2.0000 	   32.0000 	   12.4750
    1.1368 	   60.5460 	    2.0000 	   32.0000 	   12.5480
    1.0605 	   60.6820 	    2.0000 	   32.0000 	   12.6160
    1.0758 	   60.8440 	    2.0000 	   32.0000 	   12.6970
    0.9537 	   60.9820 	    2.0000 	   32.0000 	   12.7660
    0.9384 	   61.1260 	    2.0000 	   32.0000 	   12.8380
    0.9842 	   61.2640 	    2.0000 	   32.0000 	   12.9071
    1.0147 	   61.4020 	    2.0000 	   32.0000 	   12.9761
    0.9842 	   61.5400 	    2.0000 	   32.0000 	   13.0451
    0.9842 	   61.6820 	    2.0000 	   32.0000 	   13.1161
    1.0605 	   61.8240 	    2.0000 	   32.0000 	   13.1871
    1.1368 	   61.9640 	    2.0000 	   32.0000 	   13.2571
    0.9384 	   62.1080 	    2.0000 	   32.0000 	   13.3291
    0.8927 	   62.2520 	    2.0000 	   32.0000 	   13.4011
    0.9232 	   62.3960 	    2.0000 	   32.0000 	   13.4731
    0.9079 	   62.5380 	    2.0000 	   32.0000 	   13.5441
    0.9537 	   62.6800 	    2.0000 	   32.0000 	   13.6151
    0.8927 	   62.8120 	    2.0000 	   32.0000 	   13.6811
    0.8774 	   62.9500 	    2.0000 	   32.0000 	   13.7501
    0.8927 	   63.0900 	    2.0000 	   32.0000 	   13.8201
    0.9842 	   63.2160 	    2.0000 	   32.0000 	   13.8831
    0.7706 	   63.3600 	    2.0000 	   32.0000 	   13.9551
    0.8927 	   63.4860 	    2.0000 	   32.0000 	   14.0181
    0.9537 	   63.6120 	    2.0000 	   32.0000 	   14.0811
    0.8621 	   63.7380 	    2.0000 	   32.0000 	   14.1441
    1.0147 	   63.8640 	    2.0000 	   32.0000 	   14.2071
    0.8621 	   63.9900 	    2.0000 	   32.0000 	   14.2701
    0.8621 	   64.1320 	    2.0000 	   32.0000 	   14.3411
    0.8316 	   64.2700 	    2.0000 	   32.0000 	   14.4101
    0.8774 	   64.3980 	    2.0000 	   32.0000 	   14.4741
    0.8927 	   64.5240 	    2.0000 	   32.0000 	   14.5371
    1.0300 	   64.6480 	    2.0000 	   32.0000 	   14.5991
    0.6638 	   64.7740 	    2.0000 	   32.0000 	   14.6622
    0.9384 	   64.9080 	    2.0000 	   32.0000 	   14.7292
    0.7095 	   65.0400 	    2.0000 	   32.0000 	   14.7952
    0.8621 	   65.1820 	    2.0000 	   32.0000 	   14.8662
    1.0758 	   65.3220 	    2.0000 	   32.0000 	   14.9362
    0.9079 	   65.4680 	    2.0000 	   32.0000 	   15.0092
    0.8011 	   65.6100 	    2.0000 	   32.0000 	   15.0802
    0.8316 	   65.7500 	    2.0000 	   32.0000 	   15.1502
    0.8164 	   65.8900 	    2.0000 	   32.0000 	   15.2202
    0.7858 	   66.0340 	    2.0000 	   32.0000 	   15.2922
    0.9232 	   66.1780 	    2.0000 	   32.0000 	   15.3642
    0.8469 	   66.3220 	    2.0000 	   32.0000 	   15.4362
    0.9537 	   66.4660 	    2.0000 	   32.0000 	   15.5082
    0.7858 	   66.6040 	    2.0000 	   32.0000 	   15.5772
    0.4959 	   66.7500 	    2.0000 	   32.0000 	   15.6502
    0.8621 	   66.8860 	    2.0000 	   32.0000 	   15.7182
    0.9537 	   67.0360 	    2.0000 	   32.0000 	   15.7922
    0.8774 	   67.1820 	    2.0000 	   32.0000 	   15.8652
    0.8164 	   67.3220 	    2.0000 	   32.0000 	   15.9352
    0.7553 	   67.4660 	    2.0000 	   32.0000 	   16.0072
    0.6027 	   67.6060 	    2.0000 	   32.0000 	   16.0772
    0.6485 	   67.7520 	    2.0000 	   32.0000 	   16.1502
    0.7095 	   67.8940 	    2.0000 	   32.0000 	   16.2212
    0.8011 	   68.0360 	    2.0000 	   32.0000 	   16.2922
    0.8316 	   68.1860 	    2.0000 	   32.0000 	   16.3673
    0.8164 	   68.3320 	    2.0000 	   32.0000 	   16.4403
    0.7248 	   68.4720 	    2.0000 	   32.0000 	   16.5103
    0.8621 	   68.6200 	    2.0000 	   32.0000 	   16.5843
    0.7858 	   68.7680 	    2.0000 	   32.0000 	   16.6583
    0.7553 	   68.9200 	    2.0000 	   32.0000 	   16.7343
    0.5417 	   69.0640 	    2.0000 	   32.0000 	   16.8063
    0.7248 	   69.2040 	    2.0000 	   32.0000 	   16.8763
    0.8621 	   69.3480 	    2.0000 	   32.0000 	   16.9483
    0.8011 	   69.4920 	    2.0000 	   32.0000 	   17.0203
    0.6790 	   69.6240 	    2.0000 	   32.0000 	   17.0863
    0.7401 	   69.7520 	    2.0000 	   32.0000 	   17.1503
    0.7401 	   69.8940 	    2.0000 	   32.0000 	   17.2213
    0.8621 	   70.0400 	    2.0000 	   32.0000 	   17.2943
    0.5875 	   70.1820 	    2.0000 	   32.0000 	   17.3653
    0.7553 	   70.3260 	    2.0000 	   32.0000 	   17.4373
    0.5570 	   70.4700 	    2.0000 	   32.0000 	   17.5093
    0.7553 	   70.6200 	    2.0000 	   32.0000 	   17.5843
    0.7706 	   70.7640 	    2.0000 	   32.0000 	   17.6563
    0.6638 	   70.9060 	    2.0000 	   32.0000 	   17.7273
    0.5875 	   71.0500 	    2.0000 	   32.0000 	   17.7993
    0.7248 	   71.1940 	    2.0000 	   32.0000 	   17.8713
    0.7401 	   71.3360 	    2.0000 	   32.0000 	   17.9423
    0.6790 	   71.4760 	    2.0000 	   32.0000 	   18.0123
    0.6485 	   71.6220 	    2.0000 	   32.0000 	   18.0854
    0.7248 	   71.7740 	    2.0000 	   32.0000 	   18.1614
    0.8621 	   71.9200 	    2.0000 	   32.0000 	   18.2344
    0.7706 	   72.0580 	    2.0000 	   32.0000 	   18.3034
    0.7706 	   72.2080 	    2.0000 	   32.0000 	   18.3784
    0.5570 	   72.3560 	    2.0000 	   32.0000 	   18.4524
    0.7401 	   72.4940 	    2.0000 	   32.0000 	   18.5214
    0.6332 	   72.6360 	    2.0000 	   32.0000 	   18.5924
    0.8621 	   72.7860 	    2.0000 	   32.0000 	   18.6674
    0.5570 	   72.9320 	    2.0000 	   32.0000 	   18.7404
    0.6790 	   73.0780 	    2.0000 	   32.0000 	   18.8134
    0.6943 	   73.2220 	    2.0000 	   32.0000 	   18.8854
    0.6485 	   73.3640 	    2.0000 	   32.0000 	   18.9564
    0.7095 	   73.5100 	    2.0000 	   32.0000 	   19.0294
    0.6485 	   73.6600 	    2.0000 	   32.0000 	   19.1044
    0.6485 	   73.8060 	    2.0000 	   32.0000 	   19.1774
    0.7401 	   73.9460 	    2.0000 	   32.0000 	   19.2474
    0.6332 	   74.0940 	    2.0000 	   32.0000 	   19.3214
    0.6332 	   74.2520 	    2.0000 	   32.0000 	   19.4004
    0.6790 	   74.4020 	    2.0000 	   32.0000 	   19.4754
    0.5264 	   74.5480 	    2.0000 	   32.0000 	   19.5484
    0.8011 	   74.7000 	    2.0000 	   32.0000 	   19.6244
    0.6180 	   74.8480 	    2.0000 	   32.0000 	   19.6984
    0.5417 	   75.0000 	    2.0000 	   32.0000 	   19.7744
    0.6638 	   75.1480 	    2.0000 	   32.0000 	   19.8484
    0.6485 	   75.2940 	    2.0000 	   32.0000 	   19.9215
    0.6638 	   75.4380 	    2.0000 	   32.0000 	   19.9935
    0.7248 	   75.5880 	    2.0000 	   32.0000 	   20.0685
    0.6790 	   75.7360 	    2.0000 	   32.0000 	   20.1425
    0.6790 	   75.8780 	    2.0000 	   32.0000 	   20.2135
    0.5570 	   76.0180 	    2.0000 	   32.0000 	   20.2835
    0.6790 	   76.1700 	    2.0000 	   32.0000 	   20.3595
    0.7401 	   76.3200 	    2.0000 	   32.0000 	   20.4345
    0.7553 	   76.4680 	    2.0000 	   32.0000 	   20.5085
    0.8621 	   76.6160 	    2.0000 	   32.0000 	   20.5825
    0.7248 	   76.7680 	    2.0000 	   32.0000 	   20.6585
    0.7095 	   76.9160 	    2.0000 	   32.0000 	   20.7325
    0.6943 	   77.0620 	    2.0000 	   32.0000 	   20.8055
    0.5570 	   77.2060 	    2.0000 	   32.0000 	   20.8775
    0.7401 	   77.3520 	    2.0000 	   32.0000 	   20.9505
    0.7095 	   77.5020 	    2.0000 	   32.0000 	   21.0255
    0.6943 	   77.6580 	    2.0000 	   32.0000 	   21.1035
    0.5570 	   77.8060 	    2.0000 	   32.0000 	   21.1775
    0.6638 	   77.9520 	    2.0000 	   32.0000 	   21.2505
    0.5875 	   78.1020 	    2.0000 	   32.0000 	   21.3255
    0.3281 	   78.2540 	    2.0000 	   32.0000 	   21.4015
    0.6790 	   78.4040 	    2.0000 	   32.0000 	   21.4765
    0.5722 	   78.5600 	    2.0000 	   32.0000 	   21.5545
    0.5722 	   78.7020 	    2.0000 	   32.0000 	   21.6256
    0.6638 	   78.8520 	    2.0000 	   32.0000 	   21.7006
    0.6180 	   78.9960 	    2.0000 	   32.0000 	   21.7726
    0.6027 	   79.1420 	    2.0000 	   32.0000 	   21.8456
    0.7401 	   79.2840 	    2.0000 	   32.0000 	   21.9166
    0.6180 	   79.4340 	    2.0000 	   32.0000 	   21.9916
    0.5875 	   79.5840 	    2.0000 	   32.0000 	   22.0666
    0.7248 	   79.7340 	    2.0000 	   32.0000 	   22.1416
    0.7706 	   79.8820 	    2.0000 	   32.0000 	   22.2156
    0.6180 	   80.0320 	    2.0000 	   32.0000 	   22.2906
    0.6180 	   80.1840 	    2.0000 	   32.0000 	   22.3666
    0.7858 	   80.3300 	    2.0000 	   32.0000 	   22.4396
    0.6485 	   80.4840 	    2.0000 	   32.0000 	   22.5166
    0.5264 	   80.6320 	    2.0000 	   32.0000 	   22.5906
    0.5722 	   80.7840 	    2.0000 	   32.0000 	   22.6666
    0.6485 	   80.9300 	    2.0000 	   32.0000 	   22.7396
    0.6332 	   81.0760 	    2.0000 	   32.0000 	   22.8126
    0.6332 	   81.2280 	    2.0000 	   32.0000 	   22.8886
    0.5570 	   81.3600 	    2.0000 	   32.0000 	   22.9546
    0.5417 	   81.5000 	    2.0000 	   32.0000 	   23.0246
    0.6485 	   81.6340 	    2.0000 	   32.0000 	   23.0916
    0.6485 	   81.7680 	    2.0000 	   32.0000 	   23.1586
    0.5112 	   81.9020 	    2.0000 	   32.0000 	   23.2256
    0.5112 	   82.0300 	    2.0000 	   32.0000 	   23.2896
    0.5112 	   82.1780 	    2.0000 	   32.0000 	   23.3637
    0.6332 	   82.3200 	    2.0000 	   32.0000 	   23.4347
    0.5722 	   82.4580 	    2.0000 	   32.0000 	   23.5037
    0.5570 	   82.5960 	    2.0000 	   32.0000 	   23.5727
    0.6485 	   82.7380 	    2.0000 	   32.0000 	   23.6437
    0.4654 	   82.8840 	    2.0000 	   32.0000 	   23.7167
    0.5722 	   83.0320 	    2.0000 	   32.0000 	   23.7907
    0.5264 	   83.1780 	    2.0000 	   32.0000 	   23.8637
    0.5875 	   83.3240 	    2.0000 	   32.0000 	   23.9367
    0.5722 	   83.4760 	    2.0000 	   32.0000 	   24.0117
    0.4501 	   83.6260 	    2.0000 	   32.0000 	   24.0877
    0.6332 	   83.7720 	    2.0000 	   32.0000 	   24.1607
    0.6180 	   83.9160 	    2.0000 	   32.0000 	   24.2327
    0.6943 	   84.0660 	    2.0000 	   32.0000 	   24.3077
    0.6180 	   84.2220 	    2.0000 	   32.0000 	   24.3857
    0.5875 	   84.3680 	    2.0000 	   32.0000 	   24.4587
    0.4196 	   84.5200 	    2.0000 	   32.0000 	   24.5347
    0.6180 	   84.6680 	    2.0000 	   32.0000 	   24.6087
    0.2365 	   84.8420 	    2.0000 	   32.0000 	   24.6957
    0.6638 	   84.9940 	    2.0000 	   32.0000 	   24.7717
    0.5570 	   85.1520 	    2.0000 	   32.0000 	   24.8507
    0.5112 	   85.3000 	    2.0000 	   32.0000 	   24.9247
    0.4654 	   85.4480 	    2.0000 	   32.0000 	   24.9987
    0.5570 	   85.5980 	    2.0000 	   32.0000 	   25.0737
    0.5722 	   85.7520 	    2.0000 	   32.0000 	   25.1508
    0.5417 	   85.9060 	    2.0000 	   32.0000 	   25.2278
    0.5570 	   86.0640 	    2.0000 	   32.0000 	   25.3068
    0.3738 	   86.2200 	    2.0000 	   32.0000 	   25.3848
    0.5112 	   86.3680 	    2.0000 	   32.0000 	   25.4588
    0.4044 	   86.5160 	    2.0000 	   32.0000 	   25.5328
    0.4349 	   86.6660 	    2.0000 	   32.0000 	   25.6078
    0.4654 	   86.8120 	    2.0000 	   32.0000 	   25.6808
    0.5875 	   86.9600 	    2.0000 	   32.0000 	   25.7548
    0.5264 	   87.1120 	    2.0000 	   32.0000 	   25.8308
    0.5417 	   87.2600 	    2.0000 	   32.0000 	   25.9048
    0.4959 	   87.4120 	    2.0000 	   32.0000 	   25.9808
    0.4959 	   87.5620 	    2.0000 	   32.0000 	   26.0558
    0.5112 	   87.7140 	    2.0000 	   32.0000 	   26.1318
    0.6027 	   87.8680 	    2.0000 	   32.0000 	   26.2088
    0.5417 	   88.0160 	    2.0000 	   32.0000 	   26.2828
    0.5417 	   88.1720 	    2.0000 	   32.0000 	   26.3608
    0.3891 	   88.3220 	    2.0000 	   32.0000 	   26.4358
    0.6180 	   88.4780 	    2.0000 	   32.0000 	   26.5138
    0.5417 	   88.6320 	    2.0000 	   32.0000 	   26.5908
    0.6638 	   88.7820 	    2.0000 	   32.0000 	   26.6658
    0.3738 	   88.9340 	    2.0000 	   32.0000 	   26.7418
    0.4349 	   89.0900 	    2.0000 	   32.0000 	   26.8198
    0.5722 	   89.2440 	    2.0000 	   32.0000 	   26.8969
    0.5570 	   89.3940 	    2.0000 	   32.0000 	   26.9719
    0.5570 	   89.5480 	    2.0000 	   32.0000 	   27.0489
    0.4654 	   89.7020 	    2.0000 	   32.0000 	   27.1259
    0.4501 	   89.8560 	    2.0000 	   32.0000 	   27.2029
    0.6180 	   90.0080 	    2.0000 	   32.0000 	   27.2789
    0.5570 	   90.1740 	    2.0000 	   32.0000 	   27.3619
    0.4044 	   90.3280 	    2.0000 	   32.0000 	   27.4389
    0.6027 	   90.4820 	    2.0000 	   32.0000 	   27.5159
    0.4654 	   90.6360 	    2.0000 	   32.0000 	   27.5929
    0.6332 	   90.7920 	    2.0000 	   32.0000 	   27.6709
    0.6027 	   90.9440 	    2.0000 	   32.0000 	   27.7469
    0.3891 	   91.0920 	    2.0000 	   32.0000 	   27.8209
    0.3738 	   91.2440 	    2.0000 	   32.0000 	   27.8969
    0.5417 	   91.3940 	    2.0000 	   32.0000 	   27.9719
    0.5417 	   91.5460 	    2.0000 	   32.0000 	   28.0479
    0.4044 	   91.6960 	    2.0000 	   32.0000 	   28.1229
    0.6638 	   91.8480 	    2.0000 	   32.0000 	   28.1989
    0.5875 	   92.0040 	    2.0000 	   32.0000 	   28.2769
    0.6332 	   92.1580 	    2.0000 	   32.0000 	   28.3539
    0.3738 	   92.3100 	    2.0000 	   32.0000 	   28.4299
    0.6790 	   92.4600 	    2.0000 	   32.0000 	   28.5049
    0.6332 	   92.6100 	    2.0000 	   32.0000 	   28.5800
    0.5112 	   92.7680 	    2.0000 	   32.0000 	   28.6590
    0.6638 	   92.9260 	    2.0000 	   32.0000 	   28.7380
    0.4501 	   93.0800 	    2.0000 	   32.0000 	   28.8150
    0.4501 	   93.2300 	    2.0000 	   32.0000 	   28.8900
    0.5264 	   93.3820 	    2.0000 	   32.0000 	   28.9660
    0.5264 	   93.5380 	    2.0000 	   32.0000 	   29.0440
    0.4349 	   93.6920 	    2.0000 	   32.0000 	   29.1210
    0.7858 	   93.8480 	    2.0000 	   32.0000 	   29.1990
    0.5722 	   94.0000 	    2.0000 	   32.0000 	   29.2750
    0.4654 	   94.1580 	    2.0000 	   32.0000 	   29.3540
    0.5875 	   94.3140 	    2.0000 	   32.0000 	   29.4320
    0.5264 	   94.4680 	    2.0000 	   32.0000 	   29.5090
    0.5875 	   94.6180 	    2.0000 	   32.0000 	   29.5840
    0.5417 	   94.7720 	    2.0000 	   32.0000 	   29.6610
    0.3281 	   94.9240 	    2.0000 	   32.0000 	   29.7370
    0.5112 	   95.0800 	    2.0000 	   32.0000 	   29.8150
    0.5722 	   95.2280 	    2.0000 	   32.0000 	   29.8890
    0.4196 	   95.3680 	    2.0000 	   32.0000 	   29.9590
    0.5875 	   95.5200 	    2.0000 	   32.0000 	   30.0350
    0.5264 	   95.6740 	    2.0000 	   32.0000 	   30.1120
    0.5264 	   95.8240 	    2.0000 	   32.0000 	   30.1870
    0.5112 	   95.9720 	    2.0000 	   32.0000 	   30.2610
    0.5112 	   96.1260 	    2.0000 	   32.0000 	   30.3381
    0.4044 	   96.2980 	    2.0000 	   32.0000 	   30.4241
    0.5112 	   96.4540 	    2.0000 	   32.0000 	   30.5021
    0.4196 	   96.6140 	    2.0000 	   32.0000 	   30.5821
    0.3891 	   96.7740 	    2.0000 	   32.0000 	   30.6621
    0.4501 	   96.9220 	    2.0000 	   32.0000 	   30.7361
    0.4654 	   97.0780 	    2.0000 	   32.0000 	   30.8141
    0.3586 	   97.2320 	    2.0000 	   32.0000 	   30.8911
    0.4349 	   97.3800 	    2.0000 	   32.0000 	   30.9651
    0.5264 	   97.5340 	    2.0000 	   32.0000 	   31.0421
    0.1755 	   97.6900 	    2.0000 	   32.0000 	   31.1201
    0.4959 	   97.8420 	    2.0000 	   32.0000 	   31.1961
    0.5264 	   97.9980 	    2.0000 	   32.0000 	   31.2741
    0.5112 	   98.1480 	    2.0000 	   32.0000 	   31.3491
    0.4501 	   98.3120 	    2.0000 	   32.0000 	   31.4311
    0.5417 	   98.4700 	    2.0000 	   32.0000 	   31.5101
    0.5875 	   98.6240 	    2.0000 	   32.0000 	   31.5871
    0.3738 	   98.7800 	    2.0000 	   32.0000 	   31.6651
    0.3128 	   98.9320 	    2.0000 	   32.0000 	   31.7411
    0.5264 	   99.0900 	    2.0000 	   32.0000 	   31.8201
    0.6027 	   99.2420 	    2.0000 	   32.0000 	   31.8961
    0.3433 	   99.3960 	    2.0000 	   32.0000 	   31.9731
    0.3281 	   99.5480 	    2.0000 	   32.0000 	   32.0491
    0.3891 	   99.6980 	    2.0000 	   32.0000 	   32.1242
    0.3433 	   99.8520 	    2.0000 	   32.0000 	   32.2012
    0.5722 	   99.9880 	    2.0000 	   32.0000 	   32.2692
    0.4349 	  100.1380 	    2.0000 	   32.0000 	   32.3442
    0.4349 	  100.3000 	    2.0000 	   32.0000 	   32.4252
    0.5112 	  100.4580 	    2.0000 	   32.0000 	   32.5042
    0.4349 	  100.6120 	    2.0000 	   32.0000 	   32.5812
    0.4959 	  100.7660 	    2.0000 	   32.0000 	   32.6582
    0.4044 	  100.9320 	    2.0000 	   32.0000 	   32.7412
    0.3738 	  101.0880 	    2.0000 	   32.0000 	   32.8192
    0.4196 	  101.2420 	    2.0000 	   32.0000 	   32.8962
    0.4807 	  101.3980 	    2.0000 	   32.0000 	   32.9742
    0.5112 	  101.5540 	    2.0000 	   32.0000 	   33.0522
    0.3433 	  101.7120 	    2.0000 	   32.0000 	   33.1312
    0.2060 	  101.8700 	    2.0000 	   32.0000 	   33.2102
    0.5875 	  102.0300 	    2.0000 	   32.0000 	   33.2892
    0.4959 	  102.1880 	    2.0000 	   32.0000 	   33.3682
    0.5570 	  102.3400 	    2.0000 	   32.0000 	   33.4442
    0.3433 	  102.4980 	    2.0000 	   32.0000 	   33.5232
    0.1907 	  102.6580 	    2.0000 	   32.0000 	   33.6032
    0.4349 	  102.8160 	    2.0000 	   32.0000 	   33.6822
    0.3586 	  102.9680 	    2.0000 	   32.0000 	   33.7582
    0.5264 	  103.1240 	    2.0000 	   32.0000 	   33.8363
    0.2823 	  103.2820 	    2.0000 	   32.0000 	   33.9153
    0.4349 	  103.4340 	    2.0000 	   32.0000 	   33.9913
    0.4349 	  103.5940 	    2.0000 	   32.0000 	   34.0713
    0.3891 	  103.7480 	    2.0000 	   32.0000 	   34.1483
    0.4349 	  103.9100 	    2.0000 	   32.0000 	   34.2293
    0.4196 	  104.0680 	    2.0000 	   32.0000 	   34.3083
    0.5112 	  104.2240 	    2.0000 	   32.0000 	   34.3863
    0.5112 	  104.3840 	    2.0000 	   32.0000 	   34.4663
    0.4044 	  104.5360 	    2.0000 	   32.0000 	   34.5423
    0.6332 	  104.6860 	    2.0000 	   32.0000 	   34.6173
    0.2060 	  104.8440 	    2.0000 	   32.0000 	   34.6963
    0.3891 	  105.0060 	    2.0000 	   32.0000 	   34.7773
    0.4807 	  105.1660 	    2.0000 	   32.0000 	   34.8573
    0.3128 	  105.3180 	    2.0000 	   32.0000 	   34.9333
    0.3738 	  105.4740 	    2.0000 	   32.0000 	   35.0113
    0.4044 	  105.6300 	    2.0000 	   32.0000 	   35.0893
    0.5417 	  105.7860 	    2.0000 	   32.0000 	   35.1673
    0.3128 	  105.9400 	    2.0000 	   32.0000 	   35.2443
    0.2670 	  106.0980 	    2.0000 	   32.0000 	   35.3233
    0.3891 	  106.2520 	    2.0000 	   32.0000 	   35.4003
    0.5722 	  106.4100 	    2.0000 	   32.0000 	   35.4793
    0.4501 	  106.5660 	    2.0000 	   32.0000 	   35.5574
    0.2976 	  106.7220 	    2.0000 	   32.0000 	   35.6354
    0.3738 	  106.8840 	    2.0000 	   32.0000 	   35.7164
    0.4349 	  107.0420 	    2.0000 	   32.0000 	   35.7954
    0.4501 	  107.1960 	    2.0000 	   32.0000 	   35.8724
    0.2976 	  107.3580 	    2.0000 	   32.0000 	   35.9534
    0.4501 	  107.5160 	    2.0000 	   32.0000 	   36.0324
    0.4349 	  107.6740 	    2.0000 	   32.0000 	   36.1114
    0.5112 	  107.8260 	    2.0000 	   32.0000 	   36.1874
    0.1907 	  107.9820 	    2.0000 	   32.0000 	   36.2654
    0.4349 	  108.1360 	    2.0000 	   32.0000 	   36.3424
    0.2976 	  108.2920 	    2.0000 	   32.0000 	   36.4204
    0.4807 	  108.4540 	    2.0000 	   32.0000 	   36.5014
    0.4044 	  108.6120 	    2.0000 	   32.0000 	   36.5804
    0.4959 	  108.7680 	    2.0000 	   32.0000 	   36.6584
    0.3586 	  108.9260 	    2.0000 	   32.0000 	   36.7374
    0.2976 	  109.0860 	    2.0000 	   32.0000 	   36.8174
    0.4196 	  109.2440 	    2.0000 	   32.0000 	   36.8964
    0.4501 	  109.4020 	    2.0000 	   32.0000 	   36.9754
    0.3433 	  109.5620 	    2.0000 	   32.0000 	   37.0554
    0.3281 	  109.7180 	    2.0000 	   32.0000 	   37.1334
    0.5570 	  109.8760 	    2.0000 	   32.0000 	   37.2124
    0.4349 	  110.0340 	    2.0000 	   32.0000 	   37.2914
    0.3281 	  110.2000 	    2.0000 	   32.0000 	   37.3745
    0.3128 	  110.3440 	    2.0000 	   32.0000 	   37.4465
    0.4196 	  110.4940 	    2.0000 	   32.0000 	   37.5215
    0.3433 	  110.6540 	    2.0000 	   32.0000 	   37.6015
    0.4501 	  110.8020 	    2.0000 	   32.0000 	   37.6755
    0.4959 	  110.9600 	    2.0000 	   32.0000 	   37.7545
    0.2976 	  111.1200 	    2.0000 	   32.0000 	   37.8345
    0.4654 	  111.2720 	    2.0000 	   32.0000 	   37.9105
    0.3586 	  111.4360 	    2.0000 	   32.0000 	   37.9925
    0.1755 	  111.5980 	    2.0000 	   32.0000 	   38.0735
    0.3738 	  111.7520 	    2.0000 	   32.0000 	   38.1505
    0.4654 	  111.8940 	    2.0000 	   32.0000 	   38.2215
    0.3738 	  112.0360 	    2.0000 	   32.0000 	   38.2925
    0.4959 	  112.1940 	    2.0000 	   32.0000 	   38.3715
    0.4959 	  112.3540 	    2.0000 	   32.0000 	   38.4515
    0.5722 	  112.5120 	    2.0000 	   32.0000 	   38.5305
    0.1450 	  112.6740 	    2.0000 	   32.0000 	   38.6115
    0.3891 	  112.8540 	    2.0000 	   32.0000 	   38.7015
    0.4959 	  113.0160 	    2.0000 	   32.0000 	   38.7825
    0.3281 	  113.1740 	    2.0000 	   32.0000 	   38.8615
    0.3281 	  113.3320 	    2.0000 	   32.0000 	   38.9405
    0.4959 	  113.4880 	    2.0000 	   32.0000 	   39.0185
    0.3586 	  113.6440 	    2.0000 	   32.0000 	   39.0965
    0.3738 	  113.8040 	    2.0000 	   32.0000 	   39.1766
    0.3281 	  113.9620 	    2.0000 	   32.0000 	   39.2556
    0.3891 	  114.1180 	    2.0000 	   32.0000 	   39.3336
    0.2976 	  114.2760 	    2.0000 	   32.0000 	   39.4126
    0.3433 	  114.4360 	    2.0000 	   32.0000 	   39.4926
    0.2976 	  114.5960 	    2.0000 	   32.0000 	   39.5726
    0.2823 	  114.7540 	    2.0000 	   32.0000 	   39.6516
    0.3433 	  114.9100 	    2.0000 	   32.0000 	   39.7296
    0.5264 	  115.0640 	    2.0000 	   32.0000 	   39.8066
    0.3433 	  115.2340 	    2.0000 	   32.0000 	   39.8916
    0.4044 	  115.3940 	    2.0000 	   32.0000 	   39.9716
    0.3281 	  115.5500 	    2.0000 	   32.0000 	   40.0496
    0.2976 	  115.7040 	    2.0000 	   32.0000 	   40.1266
    0.2365 	  115.8600 	    2.0000 	   32.0000 	   40.2046
    0.3586 	  116.0140 	    2.0000 	   32.0000 	   40.2816
    0.5570 	  116.1660 	    2.0000 	   32.0000 	   40.3576
    0.4959 	  116.3260 	    2.0000 	   32.0000 	   40.4376
    0.3433 	  116.4880 	    2.0000 	   32.0000 	   40.5186
    0.3891 	  116.6440 	    2.0000 	   32.0000 	   40.5966
    0.4044 	  116.7980 	    2.0000 	   32.0000 	   40.6736
    0.4349 	  116.9560 	    2.0000 	   32.0000 	   40.7526
    0.4349 	  117.1160 	    2.0000 	   32.0000 	   40.8326
    0.3891 	  117.2760 	    2.0000 	   32.0000 	   40.9127
    0.3738 	  117.4380 	    2.0000 	   32.0000 	   40.9937
    0.1907 	  117.6000 	    2.0000 	   32.0000 	   41.0747
    0.4044 	  117.7640 	    2.0000 	   32.0000 	   41.1567
    0.3281 	  117.9260 	    2.0000 	   32.0000 	   41.2377
    0.3738 	  118.0860 	    2.0000 	   32.0000 	   41.3177
    0.2823 	  118.2460 	    2.0000 	   32.0000 	   41.3977
   -0.0076 	  118.4020 	    2.0000 	   32.0000 	   41.4757
    0.3281 	  118.6460 	    2.0000 	   32.0000 	   41.5977
    0.3891 	  118.8020 	    2.0000 	   32.0000 	   41.6757
    0.3433 	  118.9580 	    2.0000 	   32.0000 	   41.7537
    0.4196 	  119.1200 	    2.0000 	   32.0000 	   41.8347
    0.4349 	  119.2800 	    2.0000 	   32.0000 	   41.9147
    0.3586 	  119.4360 	    2.0000 	   32.0000 	   41.9927
    0.2823 	  119.5940 	    2.0000 	   32.0000 	   42.0717
    0.3738 	  119.7600 	    2.0000 	   32.0000 	   42.1547
    0.2823 	  119.9200 	    2.0000 	   32.0000 	   42.2347
    0.3128 	  120.0760 	    2.0000 	   32.0000 	   42.3127
    0.3128 	  120.2360 	    2.0000 	   32.0000 	   42.3927
    0.2976 	  120.3920 	    2.0000 	   32.0000 	   42.4707
    0.3586 	  120.5480 	    2.0000 	   32.0000 	   42.5487
    0.3433 	  120.7100 	    2.0000 	   32.0000 	   42.6298
    0.0229 	  120.8680 	    2.0000 	   32.0000 	   42.7088
    0.3586 	  121.0280 	    2.0000 	   32.0000 	   42.7888
    0.4349 	  121.1080 	    2.0000 	   32.0000 	   42.8288