File: instron/deadline/bak/hysteresis/blue_15_3_new/blue_15_3_60_120.txt
Thayer School of Engineering        Instron 4442 Mechanical Testing System
7/9/2018 3:25:43 AM

  Force (N)	Extension (mm)	Not Used	Not Used	Not Used	     Hour	    Minute	    Second
    1.2284 	    2.0340 	    3.0000 	   26.0000 	   12.7554
    1.2894 	    2.3560 	    3.0000 	   26.0000 	   12.9174
    1.3504 	    2.5900 	    3.0000 	   26.0000 	   13.0344
    1.0452 	    2.8660 	    3.0000 	   26.0000 	   13.1724
    1.4572 	    3.1880 	    3.0000 	   26.0000 	   13.3334
    1.1521 	    3.4880 	    3.0000 	   26.0000 	   13.4834
    1.4725 	    3.7640 	    3.0000 	   26.0000 	   13.6214
    1.5030 	    4.0520 	    3.0000 	   26.0000 	   13.7654
    1.6556 	    4.3700 	    3.0000 	   26.0000 	   13.9244
    1.6251 	    4.6900 	    3.0000 	   26.0000 	   14.0844
    1.6709 	    4.9140 	    3.0000 	   26.0000 	   14.1964
    1.7319 	    5.2280 	    3.0000 	   26.0000 	   14.3535
    1.8692 	    5.5420 	    3.0000 	   26.0000 	   14.5105
    1.8540 	    5.8200 	    3.0000 	   26.0000 	   14.6495
    1.8387 	    6.1460 	    3.0000 	   26.0000 	   14.8125
    1.8082 	    6.3700 	    3.0000 	   26.0000 	   14.9245
    1.9913 	    6.6040 	    3.0000 	   26.0000 	   15.0415
    1.7777 	    6.8500 	    3.0000 	   26.0000 	   15.1645
    2.0066 	    7.0520 	    3.0000 	   26.0000 	   15.2655
    2.0066 	    7.3020 	    3.0000 	   26.0000 	   15.3905
    1.8845 	    7.4860 	    3.0000 	   26.0000 	   15.4825
    1.8845 	    7.6760 	    3.0000 	   26.0000 	   15.5775
    2.0829 	    7.8800 	    3.0000 	   26.0000 	   15.6795
    1.9760 	    8.0640 	    3.0000 	   26.0000 	   15.7715
    2.0066 	    8.3000 	    3.0000 	   26.0000 	   15.8895
    2.2049 	    8.4700 	    3.0000 	   26.0000 	   15.9745
    2.0829 	    8.6640 	    3.0000 	   26.0000 	   16.0716
    2.1286 	    8.8480 	    3.0000 	   26.0000 	   16.1636
    2.2202 	    9.0420 	    3.0000 	   26.0000 	   16.2606
    2.2202 	    9.2280 	    3.0000 	   26.0000 	   16.3536
    1.8845 	    9.4060 	    3.0000 	   26.0000 	   16.4426
    2.1286 	    9.5940 	    3.0000 	   26.0000 	   16.5366
    2.2812 	    9.7760 	    3.0000 	   26.0000 	   16.6276
    2.1592 	    9.9680 	    3.0000 	   26.0000 	   16.7236
    2.2049 	   10.1380 	    3.0000 	   26.0000 	   16.8086
    2.1744 	   10.3000 	    3.0000 	   26.0000 	   16.8896
    2.2965 	   10.4600 	    3.0000 	   26.0000 	   16.9696
    2.3728 	   10.7080 	    3.0000 	   26.0000 	   17.0936
    2.3728 	   10.8900 	    3.0000 	   26.0000 	   17.1846
    2.2049 	   11.0740 	    3.0000 	   26.0000 	   17.2766
    2.3728 	   11.3200 	    3.0000 	   26.0000 	   17.3996
    2.5101 	   11.5080 	    3.0000 	   26.0000 	   17.4936
    2.3423 	   11.6960 	    3.0000 	   26.0000 	   17.5876
    2.4491 	   11.8940 	    3.0000 	   26.0000 	   17.6866
    2.5711 	   12.0640 	    3.0000 	   26.0000 	   17.7716
    2.4948 	   12.2280 	    3.0000 	   26.0000 	   17.8537
    2.4948 	   12.3900 	    3.0000 	   26.0000 	   17.9347
    2.4033 	   12.5740 	    3.0000 	   26.0000 	   18.0267
    2.6474 	   12.7600 	    3.0000 	   26.0000 	   18.1197
    2.5559 	   12.9420 	    3.0000 	   26.0000 	   18.2107
    2.6322 	   13.1360 	    3.0000 	   26.0000 	   18.3077
    2.6780 	   13.3140 	    3.0000 	   26.0000 	   18.3967
    2.6169 	   13.5080 	    3.0000 	   26.0000 	   18.4937
    2.6627 	   13.7080 	    3.0000 	   26.0000 	   18.5937
    2.7237 	   13.8980 	    3.0000 	   26.0000 	   18.6887
    2.5864 	   14.0680 	    3.0000 	   26.0000 	   18.7737
    2.6932 	   14.2320 	    3.0000 	   26.0000 	   18.8557
    2.4796 	   14.3960 	    3.0000 	   26.0000 	   18.9377
    2.6627 	   14.5460 	    3.0000 	   26.0000 	   19.0127
    2.8153 	   14.7240 	    3.0000 	   26.0000 	   19.1017
    2.8305 	   14.8840 	    3.0000 	   26.0000 	   19.1817
    2.5101 	   15.0440 	    3.0000 	   26.0000 	   19.2617
    2.5711 	   15.2060 	    3.0000 	   26.0000 	   19.3427
    2.8611 	   15.3840 	    3.0000 	   26.0000 	   19.4317
    2.9221 	   15.5760 	    3.0000 	   26.0000 	   19.5278
    2.8458 	   15.7680 	    3.0000 	   26.0000 	   19.6238
    2.8000 	   15.9520 	    3.0000 	   26.0000 	   19.7158
    2.8458 	   16.1260 	    3.0000 	   26.0000 	   19.8028
    3.0442 	   16.2820 	    3.0000 	   26.0000 	   19.8798
    2.8458 	   16.4440 	    3.0000 	   26.0000 	   19.9618
    3.0594 	   16.6100 	    3.0000 	   26.0000 	   20.0448
    3.0289 	   16.7800 	    3.0000 	   26.0000 	   20.1298
    2.9526 	   16.9440 	    3.0000 	   26.0000 	   20.2118
    2.9984 	   17.1180 	    3.0000 	   26.0000 	   20.2988
    2.9831 	   17.3020 	    3.0000 	   26.0000 	   20.3908
    2.7237 	   17.4880 	    3.0000 	   26.0000 	   20.4838
    2.9679 	   17.6800 	    3.0000 	   26.0000 	   20.5798
    3.0289 	   17.8600 	    3.0000 	   26.0000 	   20.6698
    3.0594 	   18.0460 	    3.0000 	   26.0000 	   20.7628
    3.0747 	   18.2220 	    3.0000 	   26.0000 	   20.8508
    3.0900 	   18.3940 	    3.0000 	   26.0000 	   20.9368
    3.2120 	   18.5460 	    3.0000 	   26.0000 	   21.0128
    3.2120 	   18.7240 	    3.0000 	   26.0000 	   21.1018
    3.1205 	   18.8960 	    3.0000 	   26.0000 	   21.1878
    3.2425 	   19.0740 	    3.0000 	   26.0000 	   21.2768
    3.3341 	   19.2600 	    3.0000 	   26.0000 	   21.3699
    2.9831 	   19.4520 	    3.0000 	   26.0000 	   21.4659
    3.2883 	   19.6440 	    3.0000 	   26.0000 	   21.5619
    3.1968 	   19.8420 	    3.0000 	   26.0000 	   21.6609
    3.2273 	   20.0220 	    3.0000 	   26.0000 	   21.7509
    3.3646 	   20.2000 	    3.0000 	   26.0000 	   21.8399
    3.2425 	   20.3740 	    3.0000 	   26.0000 	   21.9269
    3.3799 	   20.5500 	    3.0000 	   26.0000 	   22.0149
    3.2578 	   20.7400 	    3.0000 	   26.0000 	   22.1099
    3.4257 	   20.9880 	    3.0000 	   26.0000 	   22.2339
    3.5172 	   21.1860 	    3.0000 	   26.0000 	   22.3329
    3.4562 	   21.3840 	    3.0000 	   26.0000 	   22.4319
    3.6851 	   21.5700 	    3.0000 	   26.0000 	   22.5249
    3.5782 	   21.7780 	    3.0000 	   26.0000 	   22.6289
    3.5172 	   21.9600 	    3.0000 	   26.0000 	   22.7199
    3.2578 	   22.1400 	    3.0000 	   26.0000 	   22.8099
    3.6851 	   22.3000 	    3.0000 	   26.0000 	   22.8899
    3.5477 	   22.4620 	    3.0000 	   26.0000 	   22.9709
    3.6545 	   22.6880 	    3.0000 	   26.0000 	   23.0840
    3.7766 	   22.8720 	    3.0000 	   26.0000 	   23.1760
    3.6851 	   23.0600 	    3.0000 	   26.0000 	   23.2700
    3.5172 	   23.2520 	    3.0000 	   26.0000 	   23.3660
    3.5782 	   23.4400 	    3.0000 	   26.0000 	   23.4600
    3.6393 	   23.6420 	    3.0000 	   26.0000 	   23.5610
    3.5630 	   23.8360 	    3.0000 	   26.0000 	   23.6580
    3.7156 	   24.0220 	    3.0000 	   26.0000 	   23.7510
    3.7613 	   24.1980 	    3.0000 	   26.0000 	   23.8390
    3.8529 	   24.3580 	    3.0000 	   26.0000 	   23.9190
    3.8529 	   24.5160 	    3.0000 	   26.0000 	   23.9980
    3.8834 	   24.7020 	    3.0000 	   26.0000 	   24.0910
    3.7613 	   24.8720 	    3.0000 	   26.0000 	   24.1760
    3.8529 	   25.0660 	    3.0000 	   26.0000 	   24.2730
    3.8224 	   25.2600 	    3.0000 	   26.0000 	   24.3700
    3.8834 	   25.4480 	    3.0000 	   26.0000 	   24.4640
    3.8987 	   25.6460 	    3.0000 	   26.0000 	   24.5630
    3.9597 	   25.8220 	    3.0000 	   26.0000 	   24.6510
    3.9750 	   26.0260 	    3.0000 	   26.0000 	   24.7530
    3.8834 	   26.2160 	    3.0000 	   26.0000 	   24.8481
    4.0513 	   26.3800 	    3.0000 	   26.0000 	   24.9301
    4.0208 	   26.5460 	    3.0000 	   26.0000 	   25.0131
    4.0665 	   26.7420 	    3.0000 	   26.0000 	   25.1111
    4.0818 	   26.9340 	    3.0000 	   26.0000 	   25.2071
    4.1733 	   27.1220 	    3.0000 	   26.0000 	   25.3011
    3.9597 	   27.3620 	    3.0000 	   26.0000 	   25.4211
    4.2344 	   27.5480 	    3.0000 	   26.0000 	   25.5141
    4.1428 	   27.7460 	    3.0000 	   26.0000 	   25.6131
    4.3107 	   27.9340 	    3.0000 	   26.0000 	   25.7071
    4.1886 	   28.1100 	    3.0000 	   26.0000 	   25.7951
    4.2496 	   28.2860 	    3.0000 	   26.0000 	   25.8831
    4.1581 	   28.4480 	    3.0000 	   26.0000 	   25.9641
    4.5090 	   28.6120 	    3.0000 	   26.0000 	   26.0461
    4.4327 	   28.7860 	    3.0000 	   26.0000 	   26.1331
    4.3412 	   28.9760 	    3.0000 	   26.0000 	   26.2281
    4.2802 	   29.1680 	    3.0000 	   26.0000 	   26.3241
    4.4785 	   29.3520 	    3.0000 	   26.0000 	   26.4161
    4.3107 	   29.5400 	    3.0000 	   26.0000 	   26.5101
    4.2954 	   29.7480 	    3.0000 	   26.0000 	   26.6142
    4.6006 	   29.9380 	    3.0000 	   26.0000 	   26.7092
    4.2039 	   30.1280 	    3.0000 	   26.0000 	   26.8032
    4.4175 	   30.3020 	    3.0000 	   26.0000 	   26.8902
    4.5548 	   30.4720 	    3.0000 	   26.0000 	   26.9752
    4.5243 	   30.6600 	    3.0000 	   26.0000 	   27.0692
    4.6006 	   30.8500 	    3.0000 	   26.0000 	   27.1642
    4.6311 	   31.0420 	    3.0000 	   26.0000 	   27.2602
    4.7074 	   31.2460 	    3.0000 	   26.0000 	   27.3622
    4.4480 	   31.4440 	    3.0000 	   26.0000 	   27.4612
    4.6159 	   31.6460 	    3.0000 	   26.0000 	   27.5622
    4.7074 	   31.8420 	    3.0000 	   26.0000 	   27.6602
    4.6464 	   32.0420 	    3.0000 	   26.0000 	   27.7602
    4.7074 	   32.2220 	    3.0000 	   26.0000 	   27.8502
    4.7379 	   32.3900 	    3.0000 	   26.0000 	   27.9342
    4.7990 	   32.5500 	    3.0000 	   26.0000 	   28.0142
    4.5548 	   32.7380 	    3.0000 	   26.0000 	   28.1082
    4.8447 	   32.9260 	    3.0000 	   26.0000 	   28.2022
    4.7074 	   33.1060 	    3.0000 	   26.0000 	   28.2923
    4.8600 	   33.3580 	    3.0000 	   26.0000 	   28.4183
    4.8600 	   33.5440 	    3.0000 	   26.0000 	   28.5113
    4.9210 	   33.7400 	    3.0000 	   26.0000 	   28.6093
    4.9668 	   33.9240 	    3.0000 	   26.0000 	   28.7013
    5.0584 	   34.1160 	    3.0000 	   26.0000 	   28.7973
    4.9668 	   34.2960 	    3.0000 	   26.0000 	   28.8873
    4.9821 	   34.4620 	    3.0000 	   26.0000 	   28.9703
    5.0278 	   34.6240 	    3.0000 	   26.0000 	   29.0513
    5.0736 	   34.8100 	    3.0000 	   26.0000 	   29.1443
    5.0584 	   34.9980 	    3.0000 	   26.0000 	   29.2383
    5.0889 	   35.2020 	    3.0000 	   26.0000 	   29.3403
    5.1347 	   35.3860 	    3.0000 	   26.0000 	   29.4323
    5.1652 	   35.5840 	    3.0000 	   26.0000 	   29.5313
    5.0889 	   35.7760 	    3.0000 	   26.0000 	   29.6273
    5.3788 	   35.9640 	    3.0000 	   26.0000 	   29.7213
    5.2262 	   36.1620 	    3.0000 	   26.0000 	   29.8203
    5.1652 	   36.3300 	    3.0000 	   26.0000 	   29.9043
    5.2262 	   36.4960 	    3.0000 	   26.0000 	   29.9873
    5.1652 	   36.6620 	    3.0000 	   26.0000 	   30.0704
    5.2720 	   36.8540 	    3.0000 	   26.0000 	   30.1664
    5.3025 	   37.0520 	    3.0000 	   26.0000 	   30.2654
    5.3483 	   37.2540 	    3.0000 	   26.0000 	   30.3664
    5.4398 	   37.4500 	    3.0000 	   26.0000 	   30.4644
    5.4246 	   37.6520 	    3.0000 	   26.0000 	   30.5654
    5.3635 	   37.8440 	    3.0000 	   26.0000 	   30.6614
    5.5161 	   38.0300 	    3.0000 	   26.0000 	   30.7544
    5.5009 	   38.2240 	    3.0000 	   26.0000 	   30.8514
    5.3178 	   38.3940 	    3.0000 	   26.0000 	   30.9364
    5.6077 	   38.5640 	    3.0000 	   26.0000 	   31.0214
    5.5772 	   38.7500 	    3.0000 	   26.0000 	   31.1144
    5.5161 	   38.9500 	    3.0000 	   26.0000 	   31.2144
    5.6077 	   39.1480 	    3.0000 	   26.0000 	   31.3134
    5.7450 	   39.3520 	    3.0000 	   26.0000 	   31.4154
    5.6229 	   39.5460 	    3.0000 	   26.0000 	   31.5124
    5.8518 	   39.7440 	    3.0000 	   26.0000 	   31.6114
    5.7755 	   39.9360 	    3.0000 	   26.0000 	   31.7074
    5.7755 	   40.1240 	    3.0000 	   26.0000 	   31.8015
    5.8213 	   40.3160 	    3.0000 	   26.0000 	   31.8975
    5.8824 	   40.4900 	    3.0000 	   26.0000 	   31.9845
    5.9129 	   40.6560 	    3.0000 	   26.0000 	   32.0675
    5.9281 	   40.8480 	    3.0000 	   26.0000 	   32.1635
    5.7450 	   41.0400 	    3.0000 	   26.0000 	   32.2595
    6.0044 	   41.2460 	    3.0000 	   26.0000 	   32.3625
    6.0349 	   41.4500 	    3.0000 	   26.0000 	   32.4645
    6.0044 	   41.6440 	    3.0000 	   26.0000 	   32.5615
    6.2486 	   41.8420 	    3.0000 	   26.0000 	   32.6605
    6.1418 	   42.0460 	    3.0000 	   26.0000 	   32.7625
    6.1570 	   42.2340 	    3.0000 	   26.0000 	   32.8565
    6.1112 	   42.4120 	    3.0000 	   26.0000 	   32.9455
    6.1875 	   42.5800 	    3.0000 	   26.0000 	   33.0295
    6.2638 	   42.7500 	    3.0000 	   26.0000 	   33.1145
    6.2638 	   42.9420 	    3.0000 	   26.0000 	   33.2105
    6.3249 	   43.2120 	    3.0000 	   26.0000 	   33.3455
    6.3249 	   43.4200 	    3.0000 	   26.0000 	   33.4495
    6.2943 	   43.6120 	    3.0000 	   26.0000 	   33.5456
    6.3554 	   43.8180 	    3.0000 	   26.0000 	   33.6486
    6.3401 	   44.0100 	    3.0000 	   26.0000 	   33.7446
    6.5995 	   44.2080 	    3.0000 	   26.0000 	   33.8436
    6.5690 	   44.3880 	    3.0000 	   26.0000 	   33.9336
    6.0655 	   44.5600 	    3.0000 	   26.0000 	   34.0196
    6.5385 	   44.7260 	    3.0000 	   26.0000 	   34.1026
    6.5843 	   44.9260 	    3.0000 	   26.0000 	   34.2026
    6.6606 	   45.1180 	    3.0000 	   26.0000 	   34.2986
    6.7521 	   45.3160 	    3.0000 	   26.0000 	   34.3976
    6.7674 	   45.5160 	    3.0000 	   26.0000 	   34.4976
    6.5843 	   45.7120 	    3.0000 	   26.0000 	   34.5956
    6.4317 	   45.9160 	    3.0000 	   26.0000 	   34.6976
    6.7674 	   46.1060 	    3.0000 	   26.0000 	   34.7926
    6.9963 	   46.2840 	    3.0000 	   26.0000 	   34.8816
    6.9657 	   46.4800 	    3.0000 	   26.0000 	   34.9796
    6.7979 	   46.6560 	    3.0000 	   26.0000 	   35.0676
    6.8894 	   46.8400 	    3.0000 	   26.0000 	   35.1596
    7.0878 	   47.0420 	    3.0000 	   26.0000 	   35.2607
    7.0268 	   47.2540 	    3.0000 	   26.0000 	   35.3667
    7.1336 	   47.4500 	    3.0000 	   26.0000 	   35.4647
    7.0878 	   47.6540 	    3.0000 	   26.0000 	   35.5667
    7.1641 	   47.8540 	    3.0000 	   26.0000 	   35.6667
    7.1946 	   48.0560 	    3.0000 	   26.0000 	   35.7677
    7.2557 	   48.2540 	    3.0000 	   26.0000 	   35.8667
    7.1641 	   48.4420 	    3.0000 	   26.0000 	   35.9607
    7.3167 	   48.6080 	    3.0000 	   26.0000 	   36.0437
    7.5303 	   48.8000 	    3.0000 	   26.0000 	   36.1397
    7.3930 	   49.0000 	    3.0000 	   26.0000 	   36.2397
    7.4388 	   49.2040 	    3.0000 	   26.0000 	   36.3417
    7.5608 	   49.4020 	    3.0000 	   26.0000 	   36.4407
    7.4083 	   49.6080 	    3.0000 	   26.0000 	   36.5437
    7.7745 	   49.8060 	    3.0000 	   26.0000 	   36.6427
    7.7592 	   50.0100 	    3.0000 	   26.0000 	   36.7447
    7.5914 	   50.2100 	    3.0000 	   26.0000 	   36.8447
    7.7592 	   50.3900 	    3.0000 	   26.0000 	   36.9347
    7.9118 	   50.5640 	    3.0000 	   26.0000 	   37.0218
    7.7897 	   50.7380 	    3.0000 	   26.0000 	   37.1088
    7.7745 	   50.9200 	    3.0000 	   26.0000 	   37.1998
    7.9271 	   51.1160 	    3.0000 	   26.0000 	   37.2978
    7.9118 	   51.3200 	    3.0000 	   26.0000 	   37.3998
    7.9423 	   51.4980 	    3.0000 	   26.0000 	   37.4888
    8.0186 	   51.6820 	    3.0000 	   26.0000 	   37.5808
    8.2933 	   51.8740 	    3.0000 	   26.0000 	   37.6768
    8.0644 	   52.0780 	    3.0000 	   26.0000 	   37.7788
    8.2628 	   52.2700 	    3.0000 	   26.0000 	   37.8748
    8.2780 	   52.4480 	    3.0000 	   26.0000 	   37.9638
    8.2170 	   52.6200 	    3.0000 	   26.0000 	   38.0498
    8.3238 	   52.8040 	    3.0000 	   26.0000 	   38.1418
    8.2933 	   53.0180 	    3.0000 	   26.0000 	   38.2488
    8.4306 	   53.2240 	    3.0000 	   26.0000 	   38.3518
    8.6137 	   53.4240 	    3.0000 	   26.0000 	   38.4518
    8.2170 	   53.6280 	    3.0000 	   26.0000 	   38.5538
    8.4153 	   53.8260 	    3.0000 	   26.0000 	   38.6528
    8.7053 	   54.0220 	    3.0000 	   26.0000 	   38.7508
    8.6900 	   54.2240 	    3.0000 	   26.0000 	   38.8519
    8.5832 	   54.4020 	    3.0000 	   26.0000 	   38.9409
    8.8426 	   54.5860 	    3.0000 	   26.0000 	   39.0329
    8.8884 	   54.7520 	    3.0000 	   26.0000 	   39.1159
    8.9342 	   54.9460 	    3.0000 	   26.0000 	   39.2119
    8.9647 	   55.1520 	    3.0000 	   26.0000 	   39.3159
    9.1325 	   55.3520 	    3.0000 	   26.0000 	   39.4159
    9.1936 	   55.5520 	    3.0000 	   26.0000 	   39.5159
    9.2699 	   55.7480 	    3.0000 	   26.0000 	   39.6139
    9.4682 	   55.9480 	    3.0000 	   26.0000 	   39.7139
    9.3004 	   56.1600 	    3.0000 	   26.0000 	   39.8199
    9.3767 	   56.3460 	    3.0000 	   26.0000 	   39.9129
    9.3767 	   56.5220 	    3.0000 	   26.0000 	   40.0009
    9.5750 	   56.7000 	    3.0000 	   26.0000 	   40.0899
    9.5750 	   56.8740 	    3.0000 	   26.0000 	   40.1769
    9.6513 	   57.0780 	    3.0000 	   26.0000 	   40.2789
    9.8039 	   57.3440 	    3.0000 	   26.0000 	   40.4119
    9.9565 	   57.5480 	    3.0000 	   26.0000 	   40.5140
    9.9870 	   57.7460 	    3.0000 	   26.0000 	   40.6130
    9.9107 	   57.9500 	    3.0000 	   26.0000 	   40.7150
    9.7887 	   58.1500 	    3.0000 	   26.0000 	   40.8150
   10.1244 	   58.4560 	    3.0000 	   26.0000 	   40.9680
   10.0023 	   58.6580 	    3.0000 	   26.0000 	   41.0690
   10.3075 	   58.8420 	    3.0000 	   26.0000 	   41.1610
   10.2312 	   59.0140 	    3.0000 	   26.0000 	   41.2470
   10.6126 	   59.2000 	    3.0000 	   26.0000 	   41.3400
   10.2922 	   59.3820 	    3.0000 	   26.0000 	   41.4310
    9.7887 	   59.5820 	    3.0000 	   26.0000 	   41.5310
    9.5750 	   59.7800 	    3.0000 	   26.0000 	   41.6300
    9.3004 	   59.9740 	    3.0000 	   26.0000 	   41.7270
    9.0410 	   60.1820 	    3.0000 	   26.0000 	   41.8310
    8.7663 	   60.3740 	    3.0000 	   26.0000 	   41.9270
    8.8273 	   60.5520 	    3.0000 	   26.0000 	   42.0160
    8.5374 	   60.7260 	    3.0000 	   26.0000 	   42.1030
    8.5374 	   60.8960 	    3.0000 	   26.0000 	   42.1880
    8.3238 	   61.0920 	    3.0000 	   26.0000 	   42.2861
    8.1865 	   61.2740 	    3.0000 	   26.0000 	   42.3771
    8.0644 	   61.4800 	    3.0000 	   26.0000 	   42.4801
    7.8202 	   61.6680 	    3.0000 	   26.0000 	   42.5741
    7.4845 	   61.8440 	    3.0000 	   26.0000 	   42.6621
    7.6371 	   62.0220 	    3.0000 	   26.0000 	   42.7511
    7.5914 	   62.2020 	    3.0000 	   26.0000 	   42.8411
    7.6219 	   62.3780 	    3.0000 	   26.0000 	   42.9291
    7.4235 	   62.5580 	    3.0000 	   26.0000 	   43.0191
    7.3777 	   62.7340 	    3.0000 	   26.0000 	   43.1071
    7.1946 	   62.9100 	    3.0000 	   26.0000 	   43.1951
    7.1641 	   63.1120 	    3.0000 	   26.0000 	   43.2961
    6.9505 	   63.3120 	    3.0000 	   26.0000 	   43.3961
    7.1489 	   63.5140 	    3.0000 	   26.0000 	   43.4971
    6.9657 	   63.7120 	    3.0000 	   26.0000 	   43.5961
    6.8589 	   63.9100 	    3.0000 	   26.0000 	   43.6951
    6.8742 	   64.1100 	    3.0000 	   26.0000 	   43.7951
    6.8284 	   64.3120 	    3.0000 	   26.0000 	   43.8961
    6.6453 	   64.5000 	    3.0000 	   26.0000 	   43.9902
    6.5537 	   64.6760 	    3.0000 	   26.0000 	   44.0782
    6.5232 	   64.8520 	    3.0000 	   26.0000 	   44.1662
    6.4469 	   65.0460 	    3.0000 	   26.0000 	   44.2622
    6.3859 	   65.2540 	    3.0000 	   26.0000 	   44.3662
    6.2943 	   65.4520 	    3.0000 	   26.0000 	   44.4652
    6.1875 	   65.6580 	    3.0000 	   26.0000 	   44.5682
    6.1570 	   65.8500 	    3.0000 	   26.0000 	   44.6642
    6.1875 	   66.0500 	    3.0000 	   26.0000 	   44.7642
    6.0044 	   66.2540 	    3.0000 	   26.0000 	   44.8662
    5.9892 	   66.4460 	    3.0000 	   26.0000 	   44.9622
    5.9434 	   66.6240 	    3.0000 	   26.0000 	   45.0512
    6.0044 	   66.8100 	    3.0000 	   26.0000 	   45.1442
    6.0655 	   66.9860 	    3.0000 	   26.0000 	   45.2322
    5.7755 	   67.1700 	    3.0000 	   26.0000 	   45.3242
    5.4856 	   67.3700 	    3.0000 	   26.0000 	   45.4242
    5.6077 	   67.5740 	    3.0000 	   26.0000 	   45.5262
    5.8366 	   67.7680 	    3.0000 	   26.0000 	   45.6232
    5.6840 	   67.9540 	    3.0000 	   26.0000 	   45.7162
    5.5161 	   68.1440 	    3.0000 	   26.0000 	   45.8113
    5.5161 	   68.3480 	    3.0000 	   26.0000 	   45.9133
    5.7145 	   68.5260 	    3.0000 	   26.0000 	   46.0023
    5.5924 	   68.7140 	    3.0000 	   26.0000 	   46.0963
    5.6077 	   68.8940 	    3.0000 	   26.0000 	   46.1863
    5.1804 	   69.0740 	    3.0000 	   26.0000 	   46.2763
    5.4704 	   69.2880 	    3.0000 	   26.0000 	   46.3833
    5.4398 	   69.4880 	    3.0000 	   26.0000 	   46.4833
    5.1957 	   69.6640 	    3.0000 	   26.0000 	   46.5713
    5.2567 	   69.8460 	    3.0000 	   26.0000 	   46.6623
    5.2110 	   70.0280 	    3.0000 	   26.0000 	   46.7533
    5.1957 	   70.2120 	    3.0000 	   26.0000 	   46.8453
    5.1652 	   70.3880 	    3.0000 	   26.0000 	   46.9333
    5.2415 	   70.5660 	    3.0000 	   26.0000 	   47.0223
    4.9363 	   70.7460 	    3.0000 	   26.0000 	   47.1123
    5.0736 	   70.9220 	    3.0000 	   26.0000 	   47.2003
    5.0736 	   71.1020 	    3.0000 	   26.0000 	   47.2903
    4.9973 	   71.3040 	    3.0000 	   26.0000 	   47.3913
    4.9973 	   71.5160 	    3.0000 	   26.0000 	   47.4973
    4.9821 	   71.7140 	    3.0000 	   26.0000 	   47.5964
    4.8447 	   71.9160 	    3.0000 	   26.0000 	   47.6974
    4.8142 	   72.1220 	    3.0000 	   26.0000 	   47.8004
    4.7227 	   72.3320 	    3.0000 	   26.0000 	   47.9054
    4.7074 	   72.5180 	    3.0000 	   26.0000 	   47.9984
    4.7379 	   72.7020 	    3.0000 	   26.0000 	   48.0904
    4.7379 	   72.8840 	    3.0000 	   26.0000 	   48.1814
    4.7074 	   73.0820 	    3.0000 	   26.0000 	   48.2804
    4.4175 	   73.2960 	    3.0000 	   26.0000 	   48.3874
    4.6769 	   73.5020 	    3.0000 	   26.0000 	   48.4904
    4.5548 	   73.7100 	    3.0000 	   26.0000 	   48.5944
    4.6006 	   73.9160 	    3.0000 	   26.0000 	   48.6974
    4.4785 	   74.1280 	    3.0000 	   26.0000 	   48.8034
    4.5548 	   74.3420 	    3.0000 	   26.0000 	   48.9104
    4.5243 	   74.5400 	    3.0000 	   26.0000 	   49.0094
    4.4327 	   74.7260 	    3.0000 	   26.0000 	   49.1024
    4.4480 	   74.9080 	    3.0000 	   26.0000 	   49.1934
    4.4022 	   75.1160 	    3.0000 	   26.0000 	   49.2975
    4.4480 	   75.3240 	    3.0000 	   26.0000 	   49.4015
    4.2649 	   75.5300 	    3.0000 	   26.0000 	   49.5045
    4.4175 	   75.7340 	    3.0000 	   26.0000 	   49.6065
    4.1886 	   75.9440 	    3.0000 	   26.0000 	   49.7115
    4.2191 	   76.1640 	    3.0000 	   26.0000 	   49.8215
    4.2802 	   76.3680 	    3.0000 	   26.0000 	   49.9235
    4.2496 	   76.5580 	    3.0000 	   26.0000 	   50.0185
    4.2191 	   76.7560 	    3.0000 	   26.0000 	   50.1175
    4.1886 	   76.9400 	    3.0000 	   26.0000 	   50.2095
    4.1276 	   77.1260 	    3.0000 	   26.0000 	   50.3025
    4.2191 	   77.3260 	    3.0000 	   26.0000 	   50.4025
    4.1276 	   77.5360 	    3.0000 	   26.0000 	   50.5075
    4.0208 	   77.7480 	    3.0000 	   26.0000 	   50.6135
    3.9750 	   77.9560 	    3.0000 	   26.0000 	   50.7175
    3.8071 	   78.1740 	    3.0000 	   26.0000 	   50.8265
    3.7156 	   78.3780 	    3.0000 	   26.0000 	   50.9285
    3.9445 	   78.5720 	    3.0000 	   26.0000 	   51.0256
    4.0055 	   78.7600 	    3.0000 	   26.0000 	   51.1196
    3.7919 	   78.9420 	    3.0000 	   26.0000 	   51.2106
    3.9292 	   79.1340 	    3.0000 	   26.0000 	   51.3066
    3.9292 	   79.3360 	    3.0000 	   26.0000 	   51.4076
    3.7156 	   79.5440 	    3.0000 	   26.0000 	   51.5116
    3.7766 	   79.7520 	    3.0000 	   26.0000 	   51.6156
    3.8682 	   79.9600 	    3.0000 	   26.0000 	   51.7196
    3.7461 	   80.1740 	    3.0000 	   26.0000 	   51.8266
    3.8834 	   80.3840 	    3.0000 	   26.0000 	   51.9316
    3.7156 	   80.5760 	    3.0000 	   26.0000 	   52.0276
    3.7919 	   80.7700 	    3.0000 	   26.0000 	   52.1246
    3.6240 	   80.9560 	    3.0000 	   26.0000 	   52.2176
    3.6545 	   81.1580 	    3.0000 	   26.0000 	   52.3186
    3.5172 	   81.3640 	    3.0000 	   26.0000 	   52.4216
    3.6851 	   81.5740 	    3.0000 	   26.0000 	   52.5266
    3.7156 	   81.7820 	    3.0000 	   26.0000 	   52.6306
    3.6088 	   81.9940 	    3.0000 	   26.0000 	   52.7366
    3.5477 	   82.2080 	    3.0000 	   26.0000 	   52.8437
    3.5477 	   82.4200 	    3.0000 	   26.0000 	   52.9497
    3.3799 	   82.6100 	    3.0000 	   26.0000 	   53.0447
    3.4104 	   82.8080 	    3.0000 	   26.0000 	   53.1437
    3.4409 	   82.9920 	    3.0000 	   26.0000 	   53.2357
    3.5630 	   83.1860 	    3.0000 	   26.0000 	   53.3327
    3.4409 	   83.3720 	    3.0000 	   26.0000 	   53.4257
    3.4867 	   83.5680 	    3.0000 	   26.0000 	   53.5237
    3.4409 	   83.7700 	    3.0000 	   26.0000 	   53.6247
    3.2273 	   83.9760 	    3.0000 	   26.0000 	   53.7277
    3.3036 	   84.1920 	    3.0000 	   26.0000 	   53.8357
    3.2425 	   84.4040 	    3.0000 	   26.0000 	   53.9417
    3.3494 	   84.6060 	    3.0000 	   26.0000 	   54.0427
    3.3799 	   84.8000 	    3.0000 	   26.0000 	   54.1397
    3.2120 	   84.9880 	    3.0000 	   26.0000 	   54.2337
    3.3646 	   85.1740 	    3.0000 	   26.0000 	   54.3267
    2.9221 	   85.3680 	    3.0000 	   26.0000 	   54.4237
    3.1662 	   85.5680 	    3.0000 	   26.0000 	   54.5238
    3.1052 	   85.7760 	    3.0000 	   26.0000 	   54.6278
    3.1357 	   85.9900 	    3.0000 	   26.0000 	   54.7348
    3.1357 	   86.2100 	    3.0000 	   26.0000 	   54.8448
    3.0747 	   86.4200 	    3.0000 	   26.0000 	   54.9498
    3.0289 	   86.6080 	    3.0000 	   26.0000 	   55.0438
    3.0137 	   86.8000 	    3.0000 	   26.0000 	   55.1398
    2.9984 	   86.9880 	    3.0000 	   26.0000 	   55.2338
    2.8916 	   87.1980 	    3.0000 	   26.0000 	   55.3388
    2.9526 	   87.4120 	    3.0000 	   26.0000 	   55.4458
    3.1052 	   87.6260 	    3.0000 	   26.0000 	   55.5528
    2.9831 	   87.8360 	    3.0000 	   26.0000 	   55.6578
    2.9068 	   88.0440 	    3.0000 	   26.0000 	   55.7618
    2.8916 	   88.2640 	    3.0000 	   26.0000 	   55.8718
    2.9526 	   88.4620 	    3.0000 	   26.0000 	   55.9708
    2.9526 	   88.6740 	    3.0000 	   26.0000 	   56.0768
    2.7085 	   88.8720 	    3.0000 	   26.0000 	   56.1758
    2.7390 	   89.0700 	    3.0000 	   26.0000 	   56.2749
    2.6932 	   89.2620 	    3.0000 	   26.0000 	   56.3709
    2.9068 	   89.4680 	    3.0000 	   26.0000 	   56.4739
    2.8458 	   89.6780 	    3.0000 	   26.0000 	   56.5789
    2.8611 	   89.8920 	    3.0000 	   26.0000 	   56.6859
    2.8305 	   90.1060 	    3.0000 	   26.0000 	   56.7929
    2.7390 	   90.3220 	    3.0000 	   26.0000 	   56.9009
    2.6780 	   90.5220 	    3.0000 	   26.0000 	   57.0009
    2.6474 	   90.7120 	    3.0000 	   26.0000 	   57.0949
    2.6627 	   90.8980 	    3.0000 	   26.0000 	   57.1889
    2.5711 	   91.0880 	    3.0000 	   26.0000 	   57.2839
    2.6169 	   91.2760 	    3.0000 	   26.0000 	   57.3779
    2.5864 	   91.4860 	    3.0000 	   26.0000 	   57.4829
    2.5864 	   91.6980 	    3.0000 	   26.0000 	   57.5889
    2.7085 	   91.9120 	    3.0000 	   26.0000 	   57.6959
    2.5254 	   92.1160 	    3.0000 	   26.0000 	   57.7979
    2.5406 	   92.3340 	    3.0000 	   26.0000 	   57.9069
    2.5406 	   92.5300 	    3.0000 	   26.0000 	   58.0050
    2.2049 	   92.7240 	    3.0000 	   26.0000 	   58.1020
    2.4796 	   92.9100 	    3.0000 	   26.0000 	   58.1950
    2.4033 	   93.1160 	    3.0000 	   26.0000 	   58.2980
    2.3423 	   93.3220 	    3.0000 	   26.0000 	   58.4010
    2.4491 	   93.5280 	    3.0000 	   26.0000 	   58.5040
    2.2660 	   93.7440 	    3.0000 	   26.0000 	   58.6120
    2.3728 	   93.9520 	    3.0000 	   26.0000 	   58.7160
    2.3728 	   94.1760 	    3.0000 	   26.0000 	   58.8280
    2.4338 	   94.3880 	    3.0000 	   26.0000 	   58.9340
    2.1286 	   94.5840 	    3.0000 	   26.0000 	   59.0320
    2.2812 	   94.7780 	    3.0000 	   26.0000 	   59.1290
    2.2507 	   94.9660 	    3.0000 	   26.0000 	   59.2230
    2.1897 	   95.1780 	    3.0000 	   26.0000 	   59.3290
    2.3270 	   95.3900 	    3.0000 	   26.0000 	   59.4350
    2.3423 	   95.6020 	    3.0000 	   26.0000 	   59.5410
    1.9608 	   95.8200 	    3.0000 	   26.0000 	   59.6500
    2.1286 	   96.0340 	    3.0000 	   26.0000 	   59.7570
    2.1744 	   96.2520 	    3.0000 	   26.0000 	   59.8661
    2.1744 	   96.4620 	    3.0000 	   26.0000 	   59.9711
    2.2049 	   96.6620 	    3.0000 	   27.0000 	    0.0711
    2.0676 	   96.8560 	    3.0000 	   27.0000 	    0.1681
    2.1897 	   97.0420 	    3.0000 	   27.0000 	    0.2611
    2.0676 	   97.2460 	    3.0000 	   27.0000 	    0.3631
    2.1744 	   97.4640 	    3.0000 	   27.0000 	    0.4721
    2.1134 	   97.6720 	    3.0000 	   27.0000 	    0.5761
    1.9913 	   97.8700 	    3.0000 	   27.0000 	    0.6751
    1.9608 	   98.0820 	    3.0000 	   27.0000 	    0.7811
    1.7319 	   98.2980 	    3.0000 	   27.0000 	    0.8891
    1.8387 	   98.5120 	    3.0000 	   27.0000 	    0.9961
    2.0218 	   98.7160 	    3.0000 	   27.0000 	    1.0981
    1.8997 	   98.9100 	    3.0000 	   27.0000 	    1.1951
    1.9608 	   99.0980 	    3.0000 	   27.0000 	    1.2891
    2.0371 	   99.3080 	    3.0000 	   27.0000 	    1.3941
    1.8997 	   99.5260 	    3.0000 	   27.0000 	    1.5032
    1.8540 	   99.7420 	    3.0000 	   27.0000 	    1.6112
    1.8235 	   99.9540 	    3.0000 	   27.0000 	    1.7172
    1.7166 	  100.1660 	    3.0000 	   27.0000 	    1.8222
    1.8997 	  100.3660 	    3.0000 	   27.0000 	    1.9222
    1.7472 	  100.5740 	    3.0000 	   27.0000 	    2.0262
    1.7624 	  100.7700 	    3.0000 	   27.0000 	    2.1242
    1.7319 	  100.9660 	    3.0000 	   27.0000 	    2.2222
    1.7166 	  101.1600 	    3.0000 	   27.0000 	    2.3192
    1.8387 	  101.3740 	    3.0000 	   27.0000 	    2.4262
    1.6861 	  101.5920 	    3.0000 	   27.0000 	    2.5352
    1.6709 	  101.8000 	    3.0000 	   27.0000 	    2.6392
    1.6861 	  102.0180 	    3.0000 	   27.0000 	    2.7482
    1.7166 	  102.2300 	    3.0000 	   27.0000 	    2.8542
    1.5335 	  102.4400 	    3.0000 	   27.0000 	    2.9592
    1.8235 	  102.6480 	    3.0000 	   27.0000 	    3.0632
    1.6861 	  102.8400 	    3.0000 	   27.0000 	    3.1592
    1.7166 	  103.0280 	    3.0000 	   27.0000 	    3.2533
    1.5946 	  103.2420 	    3.0000 	   27.0000 	    3.3603
    1.5030 	  103.4520 	    3.0000 	   27.0000 	    3.4653
    1.5640 	  103.6760 	    3.0000 	   27.0000 	    3.5773
    1.4115 	  103.8960 	    3.0000 	   27.0000 	    3.6873
    1.5335 	  104.1160 	    3.0000 	   27.0000 	    3.7973
    1.5335 	  104.3420 	    3.0000 	   27.0000 	    3.9103
    1.3199 	  104.5560 	    3.0000 	   27.0000 	    4.0173
    1.3809 	  104.7540 	    3.0000 	   27.0000 	    4.1163
    1.5640 	  104.9480 	    3.0000 	   27.0000 	    4.2133
    1.3352 	  105.1580 	    3.0000 	   27.0000 	    4.3183
    1.4420 	  105.3820 	    3.0000 	   27.0000 	    4.4303
    1.2284 	  105.5840 	    3.0000 	   27.0000 	    4.5313
    1.4267 	  105.8020 	    3.0000 	   27.0000 	    4.6403
    1.3962 	  106.0180 	    3.0000 	   27.0000 	    4.7483
    1.3504 	  106.2360 	    3.0000 	   27.0000 	    4.8573
    1.4267 	  106.4560 	    3.0000 	   27.0000 	    4.9673
    1.3809 	  106.6660 	    3.0000 	   27.0000 	    5.0724
    1.3504 	  106.8580 	    3.0000 	   27.0000 	    5.1684
    1.2131 	  107.0480 	    3.0000 	   27.0000 	    5.2634
    1.0147 	  107.2620 	    3.0000 	   27.0000 	    5.3704
    1.1215 	  107.4820 	    3.0000 	   27.0000 	    5.4804
    1.1673 	  107.7080 	    3.0000 	   27.0000 	    5.5934
    1.2741 	  107.9360 	    3.0000 	   27.0000 	    5.7074
    1.1063 	  108.1600 	    3.0000 	   27.0000 	    5.8194
    1.2589 	  108.3820 	    3.0000 	   27.0000 	    5.9304
    1.1368 	  108.5920 	    3.0000 	   27.0000 	    6.0354
    1.0452 	  108.7960 	    3.0000 	   27.0000 	    6.1374
    1.1521 	  108.9900 	    3.0000 	   27.0000 	    6.2344
    1.1826 	  109.1820 	    3.0000 	   27.0000 	    6.3304
    0.9995 	  109.3840 	    3.0000 	   27.0000 	    6.4314
    1.0910 	  109.6020 	    3.0000 	   27.0000 	    6.5404
    0.9995 	  109.8240 	    3.0000 	   27.0000 	    6.6514
    0.9842 	  110.0460 	    3.0000 	   27.0000 	    6.7625
    0.8011 	  110.2760 	    3.0000 	   27.0000 	    6.8775
    1.0758 	  110.4980 	    3.0000 	   27.0000 	    6.9885
    0.9232 	  110.6960 	    3.0000 	   27.0000 	    7.0875
    0.7706 	  110.8920 	    3.0000 	   27.0000 	    7.1855
    1.1063 	  111.0940 	    3.0000 	   27.0000 	    7.2865
    0.8774 	  111.3000 	    3.0000 	   27.0000 	    7.3895
    0.8469 	  111.4980 	    3.0000 	   27.0000 	    7.4885
    0.8927 	  111.6960 	    3.0000 	   27.0000 	    7.5875
    0.5417 	  111.8880 	    3.0000 	   27.0000 	    7.6835
    0.8316 	  112.1140 	    3.0000 	   27.0000 	    7.7965
    0.6638 	  112.3280 	    3.0000 	   27.0000 	    7.9035
    0.8621 	  112.5460 	    3.0000 	   27.0000 	    8.0125
    0.8316 	  112.7620 	    3.0000 	   27.0000 	    8.1205
    0.7248 	  112.9560 	    3.0000 	   27.0000 	    8.2175
    0.6943 	  113.1560 	    3.0000 	   27.0000 	    8.3175
    0.6943 	  113.3680 	    3.0000 	   27.0000 	    8.4235
    0.5570 	  113.5700 	    3.0000 	   27.0000 	    8.5246
    0.5570 	  113.7940 	    3.0000 	   27.0000 	    8.6366
    0.6027 	  114.0040 	    3.0000 	   27.0000 	    8.7416
    0.6485 	  114.2280 	    3.0000 	   27.0000 	    8.8536
    0.5112 	  114.4520 	    3.0000 	   27.0000 	    8.9656
    0.4654 	  114.6600 	    3.0000 	   27.0000 	    9.0696
    0.5112 	  114.8660 	    3.0000 	   27.0000 	    9.1726
    0.5875 	  115.0580 	    3.0000 	   27.0000 	    9.2686
    0.4654 	  115.2760 	    3.0000 	   27.0000 	    9.3776
    0.3738 	  115.4800 	    3.0000 	   27.0000 	    9.4796
    0.3738 	  115.6800 	    3.0000 	   27.0000 	    9.5796
    0.4196 	  115.8980 	    3.0000 	   27.0000 	    9.6886
    0.3586 	  116.1160 	    3.0000 	   27.0000 	    9.7976
    0.4501 	  116.3200 	    3.0000 	   27.0000 	    9.8996
    0.3128 	  116.5240 	    3.0000 	   27.0000 	   10.0016
    0.2823 	  116.7380 	    3.0000 	   27.0000 	   10.1086
    0.4959 	  116.9420 	    3.0000 	   27.0000 	   10.2106
    0.3586 	  117.1520 	    3.0000 	   27.0000 	   10.3157
    0.3281 	  117.3700 	    3.0000 	   27.0000 	   10.4247
    0.2670 	  117.5940 	    3.0000 	   27.0000 	   10.5367
    0.3738 	  117.8240 	    3.0000 	   27.0000 	   10.6517
    0.1297 	  118.0480 	    3.0000 	   27.0000 	   10.7637
    0.3281 	  118.2840 	    3.0000 	   27.0000 	   10.8817
    0.3128 	  118.5080 	    3.0000 	   27.0000 	   10.9937
    0.2060 	  118.7300 	    3.0000 	   27.0000 	   11.1047
    0.2670 	  118.9420 	    3.0000 	   27.0000 	   11.2107
    0.4044 	  119.1360 	    3.0000 	   27.0000 	   11.3077
    0.3738 	  119.3580 	    3.0000 	   27.0000 	   11.4187
    0.3128 	  119.5840 	    3.0000 	   27.0000 	   11.5317
    0.3281 	  119.8260 	    3.0000 	   27.0000 	   11.6527
    0.3586 	  120.0460 	    3.0000 	   27.0000 	   11.7627
    0.3128 	  120.2720 	    3.0000 	   27.0000 	   11.8757
    0.3281 	  120.4940 	    3.0000 	   27.0000 	   11.9867
    0.2976 	  120.7000 	    3.0000 	   27.0000 	   12.0898
    0.4044 	  120.9080 	    3.0000 	   27.0000 	   12.1938
    0.4959 	  121.0360 	    3.0000 	   27.0000 	   12.2578