File: instron/deadline/bak/size/blue_15_1/blue_15_1_60_30_force.txt
Thayer School of Engineering        Instron 4442 Mechanical Testing System
7/8/2018 11:00:43 PM

  Force (N)	Extension (mm)	Not Used	Not Used	Not Used	     Hour	    Minute	    Second
    0.4349 	    0.5150 	   23.0000 	    1.0000 	    4.0474
    0.4044 	    0.5930 	   23.0000 	    1.0000 	    4.2034
    0.3433 	    0.6990 	   23.0000 	    1.0000 	    4.4155
    0.4959 	    0.7880 	   23.0000 	    1.0000 	    4.5935
    0.2365 	    0.8845 	   23.0000 	    1.0000 	    4.7865
    0.2976 	    0.9965 	   23.0000 	    1.0000 	    5.0105
    0.4044 	    1.0875 	   23.0000 	    1.0000 	    5.1925
    0.2060 	    1.2005 	   23.0000 	    1.0000 	    5.4185
    0.3281 	    1.2965 	   23.0000 	    1.0000 	    5.6105
    0.4196 	    1.3835 	   23.0000 	    1.0000 	    5.7845
    0.3586 	    1.4585 	   23.0000 	    1.0000 	    5.9345
    0.3891 	    1.5660 	   23.0000 	    1.0000 	    6.1496
    0.3738 	    1.6435 	   23.0000 	    1.0000 	    6.3046
    0.4501 	    1.7070 	   23.0000 	    1.0000 	    6.4316
    0.4044 	    1.7760 	   23.0000 	    1.0000 	    6.5696
    0.3738 	    1.8405 	   23.0000 	    1.0000 	    6.6986
    0.2823 	    1.9055 	   23.0000 	    1.0000 	    6.8286
    0.4654 	    1.9695 	   23.0000 	    1.0000 	    6.9566
    0.2823 	    2.0340 	   23.0000 	    1.0000 	    7.0856
    0.4349 	    2.0985 	   23.0000 	    1.0000 	    7.2146
    0.4196 	    2.1750 	   23.0000 	    1.0000 	    7.3676
    0.3433 	    2.2350 	   23.0000 	    1.0000 	    7.4876
    0.2976 	    2.2950 	   23.0000 	    1.0000 	    7.6076
    0.4501 	    2.3595 	   23.0000 	    1.0000 	    7.7366
    0.3891 	    2.4245 	   23.0000 	    1.0000 	    7.8667
    0.3586 	    2.4880 	   23.0000 	    1.0000 	    7.9937
    0.3128 	    2.5535 	   23.0000 	    1.0000 	    8.1247
    0.3586 	    2.6170 	   23.0000 	    1.0000 	    8.2517
    0.4807 	    2.6815 	   23.0000 	    1.0000 	    8.3807
    0.2823 	    2.7445 	   23.0000 	    1.0000 	    8.5067
    0.3433 	    2.8055 	   23.0000 	    1.0000 	    8.6287
    0.3128 	    2.8670 	   23.0000 	    1.0000 	    8.7517
    0.1907 	    2.9280 	   23.0000 	    1.0000 	    8.8727
    0.3738 	    2.9915 	   23.0000 	    1.0000 	    8.9987
    0.3891 	    3.0535 	   23.0000 	    1.0000 	    9.1237
    0.3433 	    3.1165 	   23.0000 	    1.0000 	    9.2497
    0.3586 	    3.1830 	   23.0000 	    1.0000 	    9.3827
    0.4959 	    3.2455 	   23.0000 	    1.0000 	    9.5077
    0.4349 	    3.3085 	   23.0000 	    1.0000 	    9.6338
    0.3891 	    3.3725 	   23.0000 	    1.0000 	    9.7618
    0.1602 	    3.4365 	   23.0000 	    1.0000 	    9.8898
    0.2518 	    3.5005 	   23.0000 	    1.0000 	   10.0178
    0.4196 	    3.5640 	   23.0000 	    1.0000 	   10.1448
    0.3128 	    3.6265 	   23.0000 	    1.0000 	   10.2698
    0.3433 	    3.6915 	   23.0000 	    1.0000 	   10.3998
    0.2518 	    3.7560 	   23.0000 	    1.0000 	   10.5288
    0.4654 	    3.8195 	   23.0000 	    1.0000 	   10.6558
    0.4349 	    3.8840 	   23.0000 	    1.0000 	   10.7848
    0.5112 	    3.9490 	   23.0000 	    1.0000 	   10.9148
    0.4654 	    4.0130 	   23.0000 	    1.0000 	   11.0428
    0.4196 	    4.0760 	   23.0000 	    1.0000 	   11.1688
    0.5875 	    4.1400 	   23.0000 	    1.0000 	   11.2969
    0.5875 	    4.2005 	   23.0000 	    1.0000 	   11.4179
    0.5417 	    4.2640 	   23.0000 	    1.0000 	   11.5449
    0.4654 	    4.3260 	   23.0000 	    1.0000 	   11.6689
    0.6180 	    4.3905 	   23.0000 	    1.0000 	   11.7979
    0.3281 	    4.4555 	   23.0000 	    1.0000 	   11.9279
    0.4807 	    4.5180 	   23.0000 	    1.0000 	   12.0529
    0.5570 	    4.5840 	   23.0000 	    1.0000 	   12.1849
    0.5722 	    4.6470 	   23.0000 	    1.0000 	   12.3109
    0.4654 	    4.7095 	   23.0000 	    1.0000 	   12.4359
    0.4349 	    4.7730 	   23.0000 	    1.0000 	   12.5629
    0.5875 	    4.8370 	   23.0000 	    1.0000 	   12.6909
    0.6943 	    4.8990 	   23.0000 	    1.0000 	   12.8149
    0.2823 	    4.9625 	   23.0000 	    1.0000 	   12.9419
    0.5570 	    5.0265 	   23.0000 	    1.0000 	   13.0700
    0.4501 	    5.0920 	   23.0000 	    1.0000 	   13.2010
    0.5417 	    5.1585 	   23.0000 	    1.0000 	   13.3340
    0.5875 	    5.2210 	   23.0000 	    1.0000 	   13.4590
    0.5417 	    5.2850 	   23.0000 	    1.0000 	   13.5870
    0.5570 	    5.3555 	   23.0000 	    1.0000 	   13.7280
    0.6180 	    5.4190 	   23.0000 	    1.0000 	   13.8550
    0.4501 	    5.4845 	   23.0000 	    1.0000 	   13.9860
    0.5417 	    5.5490 	   23.0000 	    1.0000 	   14.1150
    0.7248 	    5.6100 	   23.0000 	    1.0000 	   14.2370
    0.5570 	    5.6880 	   23.0000 	    1.0000 	   14.3930
    0.6638 	    5.7520 	   23.0000 	    1.0000 	   14.5210
    0.6180 	    5.8150 	   23.0000 	    1.0000 	   14.6470
    0.3738 	    5.8780 	   23.0000 	    1.0000 	   14.7730
    0.6180 	    5.9415 	   23.0000 	    1.0000 	   14.9001
    0.7401 	    6.0080 	   23.0000 	    1.0000 	   15.0331
    0.5570 	    6.0730 	   23.0000 	    1.0000 	   15.1631
    0.6485 	    6.1385 	   23.0000 	    1.0000 	   15.2941
    0.6790 	    6.2010 	   23.0000 	    1.0000 	   15.4191
    0.7401 	    6.2665 	   23.0000 	    1.0000 	   15.5501
    0.5875 	    6.3285 	   23.0000 	    1.0000 	   15.6741
    0.8011 	    6.3900 	   23.0000 	    1.0000 	   15.7971
    0.6180 	    6.4535 	   23.0000 	    1.0000 	   15.9241
    0.6790 	    6.5180 	   23.0000 	    1.0000 	   16.0531
    0.6180 	    6.5805 	   23.0000 	    1.0000 	   16.1781
    0.6180 	    6.6450 	   23.0000 	    1.0000 	   16.3071
    0.6332 	    6.7100 	   23.0000 	    1.0000 	   16.4371
    0.6485 	    6.7740 	   23.0000 	    1.0000 	   16.5652
    0.5875 	    6.8385 	   23.0000 	    1.0000 	   16.6942
    0.6332 	    6.9020 	   23.0000 	    1.0000 	   16.8212
    0.6332 	    6.9660 	   23.0000 	    1.0000 	   16.9492
    0.7248 	    7.0330 	   23.0000 	    1.0000 	   17.0832
    0.5875 	    7.0960 	   23.0000 	    1.0000 	   17.2092
    0.6638 	    7.1610 	   23.0000 	    1.0000 	   17.3392
    0.8774 	    7.2225 	   23.0000 	    1.0000 	   17.4622
    0.7401 	    7.2855 	   23.0000 	    1.0000 	   17.5882
    0.6790 	    7.3535 	   23.0000 	    1.0000 	   17.7242
    0.5417 	    7.4200 	   23.0000 	    1.0000 	   17.8572
    0.6485 	    7.4845 	   23.0000 	    1.0000 	   17.9862
    0.8011 	    7.5480 	   23.0000 	    1.0000 	   18.1132
    0.8316 	    7.6130 	   23.0000 	    1.0000 	   18.2432
    0.7706 	    7.6780 	   23.0000 	    1.0000 	   18.3733
    0.7248 	    7.7425 	   23.0000 	    1.0000 	   18.5023
    0.6790 	    7.8085 	   23.0000 	    1.0000 	   18.6343
    0.9079 	    7.8745 	   23.0000 	    1.0000 	   18.7663
    0.7706 	    7.9380 	   23.0000 	    1.0000 	   18.8933
    0.8011 	    8.0025 	   23.0000 	    1.0000 	   19.0223
    0.6332 	    8.0685 	   23.0000 	    1.0000 	   19.1543
    0.8927 	    8.1340 	   23.0000 	    1.0000 	   19.2853
    0.8316 	    8.2015 	   23.0000 	    1.0000 	   19.4203
    0.7706 	    8.2695 	   23.0000 	    1.0000 	   19.5563
    0.8469 	    8.3375 	   23.0000 	    1.0000 	   19.6923
    0.5264 	    8.4020 	   23.0000 	    1.0000 	   19.8213
    0.7095 	    8.4700 	   23.0000 	    1.0000 	   19.9573
    1.0452 	    8.5370 	   23.0000 	    1.0000 	   20.0914
    0.8316 	    8.6035 	   23.0000 	    1.0000 	   20.2244
    0.6943 	    8.6705 	   23.0000 	    1.0000 	   20.3584
    0.8316 	    8.7360 	   23.0000 	    1.0000 	   20.4894
    0.8774 	    8.8000 	   23.0000 	    1.0000 	   20.6174
    0.9842 	    8.8670 	   23.0000 	    1.0000 	   20.7514
    0.8011 	    8.9325 	   23.0000 	    1.0000 	   20.8824
    0.9384 	    8.9985 	   23.0000 	    1.0000 	   21.0144
    0.7095 	    9.0655 	   23.0000 	    1.0000 	   21.1484
    0.8927 	    9.1310 	   23.0000 	    1.0000 	   21.2794
    0.8011 	    9.1960 	   23.0000 	    1.0000 	   21.4094
    0.9232 	    9.2640 	   23.0000 	    1.0000 	   21.5454
    0.9995 	    9.3360 	   23.0000 	    1.0000 	   21.6894
    0.8469 	    9.4020 	   23.0000 	    1.0000 	   21.8215
    0.8621 	    9.4680 	   23.0000 	    1.0000 	   21.9535
    0.9384 	    9.5355 	   23.0000 	    1.0000 	   22.0885
    0.9384 	    9.6000 	   23.0000 	    1.0000 	   22.2175
    0.8621 	    9.6675 	   23.0000 	    1.0000 	   22.3525
    0.8621 	    9.7350 	   23.0000 	    1.0000 	   22.4875
    1.0300 	    9.8015 	   23.0000 	    1.0000 	   22.6205
    0.9232 	    9.8695 	   23.0000 	    1.0000 	   22.7565
    0.9384 	    9.9380 	   23.0000 	    1.0000 	   22.8935
    0.9689 	   10.0055 	   23.0000 	    1.0000 	   23.0285
    0.9232 	   10.0725 	   23.0000 	    1.0000 	   23.1625
    0.9842 	   10.1390 	   23.0000 	    1.0000 	   23.2955
    0.9232 	   10.2070 	   23.0000 	    1.0000 	   23.4315
    0.9079 	   10.2730 	   23.0000 	    1.0000 	   23.5636
    0.9079 	   10.3395 	   23.0000 	    1.0000 	   23.6966
    0.9232 	   10.4045 	   23.0000 	    1.0000 	   23.8266
    1.0452 	   10.4645 	   23.0000 	    1.0000 	   23.9466
    1.0300 	   10.5305 	   23.0000 	    1.0000 	   24.0786
    0.9232 	   10.5980 	   23.0000 	    1.0000 	   24.2136
    0.9232 	   10.6590 	   23.0000 	    1.0000 	   24.3356
    1.0605 	   10.7235 	   23.0000 	    1.0000 	   24.4646
    1.0605 	   10.7895 	   23.0000 	    1.0000 	   24.5966
    0.8774 	   10.8580 	   23.0000 	    1.0000 	   24.7336
    0.9689 	   10.9245 	   23.0000 	    1.0000 	   24.8666
    0.9537 	   10.9910 	   23.0000 	    1.0000 	   24.9996
    0.9079 	   11.0585 	   23.0000 	    1.0000 	   25.1346
    0.9232 	   11.1260 	   23.0000 	    1.0000 	   25.2696
    1.0452 	   11.1955 	   23.0000 	    1.0000 	   25.4087
    0.7553 	   11.2650 	   23.0000 	    1.0000 	   25.5477
    1.0147 	   11.3315 	   23.0000 	    1.0000 	   25.6807
    0.9689 	   11.3995 	   23.0000 	    1.0000 	   25.8167
    0.9537 	   11.4655 	   23.0000 	    1.0000 	   25.9487
    1.0910 	   11.5320 	   23.0000 	    1.0000 	   26.0817
    0.9232 	   11.5980 	   23.0000 	    1.0000 	   26.2137
    1.1063 	   11.6670 	   23.0000 	    1.0000 	   26.3507
    1.1215 	   11.7350 	   23.0000 	    1.0000 	   26.4867
    0.9537 	   11.8020 	   23.0000 	    1.0000 	   26.6207
    0.9232 	   11.8710 	   23.0000 	    1.0000 	   26.7587
    0.9537 	   11.9380 	   23.0000 	    1.0000 	   26.8927
    0.9537 	   12.0065 	   23.0000 	    1.0000 	   27.0298
    1.1521 	   12.0760 	   23.0000 	    1.0000 	   27.1688
    0.6638 	   12.1435 	   23.0000 	    1.0000 	   27.3038
    1.0300 	   12.2110 	   23.0000 	    1.0000 	   27.4388
    0.9995 	   12.2795 	   23.0000 	    1.0000 	   27.5758
    0.7858 	   12.3460 	   23.0000 	    1.0000 	   27.7088
    1.2131 	   12.4125 	   23.0000 	    1.0000 	   27.8418
    0.9537 	   12.4960 	   23.0000 	    1.0000 	   28.0088
    1.1673 	   12.5655 	   23.0000 	    1.0000 	   28.1478
    1.1826 	   12.6335 	   23.0000 	    1.0000 	   28.2838
    0.8621 	   12.7015 	   23.0000 	    1.0000 	   28.4198
    0.9995 	   12.7715 	   23.0000 	    1.0000 	   28.5598
    1.1368 	   12.8415 	   23.0000 	    1.0000 	   28.6998
    1.0147 	   12.9115 	   23.0000 	    1.0000 	   28.8389
    0.9537 	   12.9805 	   23.0000 	    1.0000 	   28.9779
    1.0300 	   13.0525 	   23.0000 	    1.0000 	   29.1219
    1.1368 	   13.1215 	   23.0000 	    1.0000 	   29.2599
    1.0758 	   13.1875 	   23.0000 	    1.0000 	   29.3919
    0.9842 	   13.2555 	   23.0000 	    1.0000 	   29.5279
    1.0758 	   13.3245 	   23.0000 	    1.0000 	   29.6659
    1.0605 	   13.3935 	   23.0000 	    1.0000 	   29.8039
    1.1063 	   13.4630 	   23.0000 	    1.0000 	   29.9429
    1.1521 	   13.5300 	   23.0000 	    1.0000 	   30.0769
    0.7858 	   13.6005 	   23.0000 	    1.0000 	   30.2179
    1.0910 	   13.6700 	   23.0000 	    1.0000 	   30.3569
    1.1978 	   13.7385 	   23.0000 	    1.0000 	   30.4939
    1.1215 	   13.8090 	   23.0000 	    1.0000 	   30.6350
    1.2894 	   13.8790 	   23.0000 	    1.0000 	   30.7750
    1.0758 	   13.9465 	   23.0000 	    1.0000 	   30.9100
    1.1978 	   14.0170 	   23.0000 	    1.0000 	   31.0510
    0.9842 	   14.0875 	   23.0000 	    1.0000 	   31.1920
    1.0452 	   14.1565 	   23.0000 	    1.0000 	   31.3300
    1.1215 	   14.2255 	   23.0000 	    1.0000 	   31.4680
    1.2741 	   14.2975 	   23.0000 	    1.0000 	   31.6120
    1.0910 	   14.3740 	   23.0000 	    1.0000 	   31.7650
    1.1215 	   14.4435 	   23.0000 	    1.0000 	   31.9040
    1.1978 	   14.5125 	   23.0000 	    1.0000 	   32.0420
    1.2436 	   14.5840 	   23.0000 	    1.0000 	   32.1850
    1.1215 	   14.6535 	   23.0000 	    1.0000 	   32.3241
    1.0910 	   14.7235 	   23.0000 	    1.0000 	   32.4641
    1.1673 	   14.7945 	   23.0000 	    1.0000 	   32.6061
    1.0605 	   14.8585 	   23.0000 	    1.0000 	   32.7341
    1.2436 	   14.9190 	   23.0000 	    1.0000 	   32.8551
    1.1978 	   14.9810 	   23.0000 	    1.0000 	   32.9791
    1.1673 	   15.0445 	   23.0000 	    1.0000 	   33.1061
    1.1215 	   15.1135 	   23.0000 	    1.0000 	   33.2441
    1.2131 	   15.1800 	   23.0000 	    1.0000 	   33.3771
    1.1215 	   15.2475 	   23.0000 	    1.0000 	   33.5121
    1.0758 	   15.3205 	   23.0000 	    1.0000 	   33.6581
    1.0758 	   15.3910 	   23.0000 	    1.0000 	   33.7991
    1.1826 	   15.4625 	   23.0000 	    1.0000 	   33.9421
    1.3046 	   15.5320 	   23.0000 	    1.0000 	   34.0812
    1.1673 	   15.5965 	   23.0000 	    1.0000 	   34.2102
    1.3046 	   15.6590 	   23.0000 	    1.0000 	   34.3352
    1.1368 	   15.7295 	   23.0000 	    1.0000 	   34.4762
    1.1521 	   15.8000 	   23.0000 	    1.0000 	   34.6172
    1.2894 	   15.8685 	   23.0000 	    1.0000 	   34.7542
    1.1978 	   15.9390 	   23.0000 	    1.0000 	   34.8952
    1.1368 	   16.0100 	   23.0000 	    1.0000 	   35.0372
    1.1978 	   16.0815 	   23.0000 	    1.0000 	   35.1802
    1.3504 	   16.1520 	   23.0000 	    1.0000 	   35.3212
    1.2894 	   16.2210 	   23.0000 	    1.0000 	   35.4592
    1.3046 	   16.2915 	   23.0000 	    1.0000 	   35.6002
    1.1978 	   16.3615 	   23.0000 	    1.0000 	   35.7402
    1.2894 	   16.4320 	   23.0000 	    1.0000 	   35.8813
    1.2589 	   16.5020 	   23.0000 	    1.0000 	   36.0213
    1.2436 	   16.5740 	   23.0000 	    1.0000 	   36.1653
    1.3809 	   16.6435 	   23.0000 	    1.0000 	   36.3043
    1.2741 	   16.7105 	   23.0000 	    1.0000 	   36.4383
    1.4420 	   16.7815 	   23.0000 	    1.0000 	   36.5803
    1.2589 	   16.8540 	   23.0000 	    1.0000 	   36.7253
    1.4267 	   16.9265 	   23.0000 	    1.0000 	   36.8703
    1.1978 	   16.9985 	   23.0000 	    1.0000 	   37.0143
    1.3199 	   17.0690 	   23.0000 	    1.0000 	   37.1553
    1.3504 	   17.1405 	   23.0000 	    1.0000 	   37.2983
    1.1521 	   17.2110 	   23.0000 	    1.0000 	   37.4393
    1.2436 	   17.2810 	   23.0000 	    1.0000 	   37.5794
    1.3809 	   17.3565 	   23.0000 	    1.0000 	   37.7304
    1.3046 	   17.4270 	   23.0000 	    1.0000 	   37.8714
    1.2436 	   17.4960 	   23.0000 	    1.0000 	   38.0094
    1.4115 	   17.5690 	   23.0000 	    1.0000 	   38.1554
    1.3046 	   17.6385 	   23.0000 	    1.0000 	   38.2944
    1.2741 	   17.7100 	   23.0000 	    1.0000 	   38.4374
    1.3199 	   17.7810 	   23.0000 	    1.0000 	   38.5794
    1.3352 	   17.8520 	   23.0000 	    1.0000 	   38.7214
    1.3352 	   17.9240 	   23.0000 	    1.0000 	   38.8654
    1.2284 	   17.9930 	   23.0000 	    1.0000 	   39.0034
    1.3809 	   18.0655 	   23.0000 	    1.0000 	   39.1484
    1.3046 	   18.1370 	   23.0000 	    1.0000 	   39.2915
    1.2589 	   18.2085 	   23.0000 	    1.0000 	   39.4345
    1.3352 	   18.2810 	   23.0000 	    1.0000 	   39.5795
    1.3504 	   18.3525 	   23.0000 	    1.0000 	   39.7225
    1.0758 	   18.4190 	   23.0000 	    1.0000 	   39.8555
    1.2894 	   18.4825 	   23.0000 	    1.0000 	   39.9825
    1.3657 	   18.5490 	   23.0000 	    1.0000 	   40.1155
    1.2741 	   18.6140 	   23.0000 	    1.0000 	   40.2455
    1.5030 	   18.6780 	   23.0000 	    1.0000 	   40.3735
    1.4267 	   18.7490 	   23.0000 	    1.0000 	   40.5155
    1.3046 	   18.8210 	   23.0000 	    1.0000 	   40.6595
    1.3962 	   18.8910 	   23.0000 	    1.0000 	   40.7995
    1.3657 	   18.9635 	   23.0000 	    1.0000 	   40.9445
    1.3809 	   19.0375 	   23.0000 	    1.0000 	   41.0926
    1.5030 	   19.1105 	   23.0000 	    1.0000 	   41.2386
    1.3962 	   19.1815 	   23.0000 	    1.0000 	   41.3806
    1.5640 	   19.2535 	   23.0000 	    1.0000 	   41.5246
    1.2741 	   19.3240 	   23.0000 	    1.0000 	   41.6656
    1.4115 	   19.3935 	   23.0000 	    1.0000 	   41.8046
    1.3504 	   19.4685 	   23.0000 	    1.0000 	   41.9546
    1.4725 	   19.5430 	   23.0000 	    1.0000 	   42.1036
    1.4115 	   19.6155 	   23.0000 	    1.0000 	   42.2486
    1.3657 	   19.6860 	   23.0000 	    1.0000 	   42.3896
    1.4572 	   19.7590 	   23.0000 	    1.0000 	   42.5356
    1.4267 	   19.8315 	   23.0000 	    1.0000 	   42.6806
    1.5030 	   19.9045 	   23.0000 	    1.0000 	   42.8267
    1.5335 	   19.9775 	   23.0000 	    1.0000 	   42.9727
    1.4115 	   20.0525 	   23.0000 	    1.0000 	   43.1227
    1.4420 	   20.1255 	   23.0000 	    1.0000 	   43.2687
    1.4725 	   20.1995 	   23.0000 	    1.0000 	   43.4167
    1.4267 	   20.2720 	   23.0000 	    1.0000 	   43.5617
    1.5335 	   20.3455 	   23.0000 	    1.0000 	   43.7087
    1.4420 	   20.4195 	   23.0000 	    1.0000 	   43.8557
    1.3962 	   20.4935 	   23.0000 	    1.0000 	   44.0037
    1.5946 	   20.5675 	   23.0000 	    1.0000 	   44.1517
    1.5335 	   20.6415 	   23.0000 	    1.0000 	   44.2997
    1.5488 	   20.7105 	   23.0000 	    1.0000 	   44.4377
    1.5335 	   20.7835 	   23.0000 	    1.0000 	   44.5838
    1.6098 	   20.8510 	   23.0000 	    1.0000 	   44.7188
    1.4420 	   20.9240 	   23.0000 	    1.0000 	   44.8648
    1.4115 	   21.0005 	   23.0000 	    1.0000 	   45.0178
    1.3046 	   21.0745 	   23.0000 	    1.0000 	   45.1658
    1.5640 	   21.1475 	   23.0000 	    1.0000 	   45.3118
    1.3809 	   21.2220 	   23.0000 	    1.0000 	   45.4608
    1.5793 	   21.2970 	   23.0000 	    1.0000 	   45.6108
    1.5640 	   21.3745 	   23.0000 	    1.0000 	   45.7658
    1.5335 	   21.4470 	   23.0000 	    1.0000 	   45.9108
    1.5335 	   21.5210 	   23.0000 	    1.0000 	   46.0588
    1.4878 	   21.5930 	   23.0000 	    1.0000 	   46.2028
    1.5488 	   21.6655 	   23.0000 	    1.0000 	   46.3479
    1.5793 	   21.7385 	   23.0000 	    1.0000 	   46.4939
    1.5335 	   21.8125 	   23.0000 	    1.0000 	   46.6419
    1.6403 	   21.8865 	   23.0000 	    1.0000 	   46.7899
    1.5030 	   21.9600 	   23.0000 	    1.0000 	   46.9369
    1.6556 	   22.0325 	   23.0000 	    1.0000 	   47.0819
    1.5640 	   22.1085 	   23.0000 	    1.0000 	   47.2339
    1.5640 	   22.1820 	   23.0000 	    1.0000 	   47.3809
    1.4725 	   22.2540 	   23.0000 	    1.0000 	   47.5249
    1.5488 	   22.3285 	   23.0000 	    1.0000 	   47.6739
    1.6709 	   22.4060 	   23.0000 	    1.0000 	   47.8289
    1.5030 	   22.4810 	   23.0000 	    1.0000 	   47.9790
    1.6098 	   22.5575 	   23.0000 	    1.0000 	   48.1320
    1.5946 	   22.6300 	   23.0000 	    1.0000 	   48.2770
    1.3962 	   22.6990 	   23.0000 	    1.0000 	   48.4150
    1.3046 	   22.7665 	   23.0000 	    1.0000 	   48.5500
    1.5183 	   22.8310 	   23.0000 	    1.0000 	   48.6790
    1.5030 	   22.8975 	   23.0000 	    1.0000 	   48.8120
    1.6556 	   22.9705 	   23.0000 	    1.0000 	   48.9580
    1.6861 	   23.0455 	   23.0000 	    1.0000 	   49.1080
    1.6403 	   23.1215 	   23.0000 	    1.0000 	   49.2600
    1.6556 	   23.1950 	   23.0000 	    1.0000 	   49.4070
    1.6861 	   23.2675 	   23.0000 	    1.0000 	   49.5520
    1.6861 	   23.3425 	   23.0000 	    1.0000 	   49.7020
    1.4420 	   23.4160 	   23.0000 	    1.0000 	   49.8491
    1.6403 	   23.4890 	   23.0000 	    1.0000 	   49.9951
    1.7014 	   23.5660 	   23.0000 	    1.0000 	   50.1491
    1.6556 	   23.6335 	   23.0000 	    1.0000 	   50.2841
    1.6709 	   23.7020 	   23.0000 	    1.0000 	   50.4211
    1.5946 	   23.7750 	   23.0000 	    1.0000 	   50.5671
    1.5793 	   23.8490 	   23.0000 	    1.0000 	   50.7151
    1.4725 	   23.9235 	   23.0000 	    1.0000 	   50.8641
    1.6556 	   23.9985 	   23.0000 	    1.0000 	   51.0141
    1.7319 	   24.0735 	   23.0000 	    1.0000 	   51.1641
    1.7929 	   24.1485 	   23.0000 	    1.0000 	   51.3141
    1.6709 	   24.2220 	   23.0000 	    1.0000 	   51.4611
    1.5640 	   24.2960 	   23.0000 	    1.0000 	   51.6092
    1.7777 	   24.3760 	   23.0000 	    1.0000 	   51.7692
    1.6861 	   24.4505 	   23.0000 	    1.0000 	   51.9182
    1.8692 	   24.5255 	   23.0000 	    1.0000 	   52.0682
    1.6251 	   24.6015 	   23.0000 	    1.0000 	   52.2202
    1.6709 	   24.6750 	   23.0000 	    1.0000 	   52.3672
    1.7319 	   24.7490 	   23.0000 	    1.0000 	   52.5152
    1.6556 	   24.8240 	   23.0000 	    1.0000 	   52.6652
    1.5640 	   24.8955 	   23.0000 	    1.0000 	   52.8082
    1.8387 	   24.9620 	   23.0000 	    1.0000 	   52.9412
    1.7014 	   25.0295 	   23.0000 	    1.0000 	   53.0762
    1.6556 	   25.0980 	   23.0000 	    1.0000 	   53.2132
    1.5793 	   25.1650 	   23.0000 	    1.0000 	   53.3473
    1.6251 	   25.2315 	   23.0000 	    1.0000 	   53.4803
    1.6098 	   25.2990 	   23.0000 	    1.0000 	   53.6153
    1.7319 	   25.3750 	   23.0000 	    1.0000 	   53.7673
    1.6861 	   25.4440 	   23.0000 	    1.0000 	   53.9053
    1.7166 	   25.5110 	   23.0000 	    1.0000 	   54.0393
    1.6403 	   25.5820 	   23.0000 	    1.0000 	   54.1813
    1.6098 	   25.6575 	   23.0000 	    1.0000 	   54.3323
    1.6098 	   25.7330 	   23.0000 	    1.0000 	   54.4833
    1.7624 	   25.8090 	   23.0000 	    1.0000 	   54.6353
    1.7472 	   25.8840 	   23.0000 	    1.0000 	   54.7853
    1.7166 	   25.9595 	   23.0000 	    1.0000 	   54.9363
    1.7166 	   26.0335 	   23.0000 	    1.0000 	   55.0844
    1.7929 	   26.1105 	   23.0000 	    1.0000 	   55.2384
    1.7777 	   26.1870 	   23.0000 	    1.0000 	   55.3914
    1.7166 	   26.2630 	   23.0000 	    1.0000 	   55.5434
    1.7319 	   26.3410 	   23.0000 	    1.0000 	   55.6994
    1.6861 	   26.4175 	   23.0000 	    1.0000 	   55.8524
    1.7929 	   26.4935 	   23.0000 	    1.0000 	   56.0044
    1.6251 	   26.5705 	   23.0000 	    1.0000 	   56.1584
    1.6861 	   26.6460 	   23.0000 	    1.0000 	   56.3084
    1.8997 	   26.7235 	   23.0000 	    1.0000 	   56.4644
    1.8235 	   26.8000 	   23.0000 	    1.0000 	   56.6164
    1.7624 	   26.8745 	   23.0000 	    1.0000 	   56.7665
    1.7166 	   26.9515 	   23.0000 	    1.0000 	   56.9205
    1.7624 	   27.0255 	   23.0000 	    1.0000 	   57.0685
    1.8997 	   27.1020 	   23.0000 	    1.0000 	   57.2215
    1.7166 	   27.1780 	   23.0000 	    1.0000 	   57.3735
    1.8235 	   27.2520 	   23.0000 	    1.0000 	   57.5215
    1.7472 	   27.3260 	   23.0000 	    1.0000 	   57.6695
    1.8540 	   27.4025 	   23.0000 	    1.0000 	   57.8225
    1.8387 	   27.4785 	   23.0000 	    1.0000 	   57.9745
    1.8692 	   27.5555 	   23.0000 	    1.0000 	   58.1285
    1.8387 	   27.6295 	   23.0000 	    1.0000 	   58.2765
    1.7014 	   27.7005 	   23.0000 	    1.0000 	   58.4185
    1.8387 	   27.7740 	   23.0000 	    1.0000 	   58.5656
    1.6251 	   27.8490 	   23.0000 	    1.0000 	   58.7156
    1.9455 	   27.9250 	   23.0000 	    1.0000 	   58.8676
    1.8082 	   28.0010 	   23.0000 	    1.0000 	   59.0196
    1.5183 	   28.0790 	   23.0000 	    1.0000 	   59.1756
    1.8845 	   28.1555 	   23.0000 	    1.0000 	   59.3286
    1.8387 	   28.2325 	   23.0000 	    1.0000 	   59.4826
    1.8540 	   28.3075 	   23.0000 	    1.0000 	   59.6326
    1.8692 	   28.3805 	   23.0000 	    1.0000 	   59.7786
    1.8540 	   28.4580 	   23.0000 	    1.0000 	   59.9336
    1.9913 	   28.5375 	   23.0000 	    2.0000 	    0.0926
    1.8692 	   28.6155 	   23.0000 	    2.0000 	    0.2487
    2.0066 	   28.6925 	   23.0000 	    2.0000 	    0.4027
    1.9608 	   28.7705 	   23.0000 	    2.0000 	    0.5587
    1.7319 	   28.8465 	   23.0000 	    2.0000 	    0.7107
    1.9455 	   28.9235 	   23.0000 	    2.0000 	    0.8647
    1.8692 	   29.0000 	   23.0000 	    2.0000 	    1.0177
    2.0829 	   29.0785 	   23.0000 	    2.0000 	    1.1747
    1.6556 	   29.1545 	   23.0000 	    2.0000 	    1.3257
    1.5640 	   29.2290 	   23.0000 	    2.0000 	    1.4747
    1.8387 	   29.3030 	   23.0000 	    2.0000 	    1.6227
    1.8997 	   29.3795 	   23.0000 	    2.0000 	    1.7757
    1.9303 	   29.4485 	   23.0000 	    2.0000 	    1.9137
    1.9913 	   29.5170 	   23.0000 	    2.0000 	    2.0508
    1.9455 	   29.5880 	   23.0000 	    2.0000 	    2.1928
    2.0523 	   29.6570 	   23.0000 	    2.0000 	    2.3308
    1.8845 	   29.7285 	   23.0000 	    2.0000 	    2.4738
    1.9303 	   29.8050 	   23.0000 	    2.0000 	    2.6268
    2.0218 	   29.8825 	   23.0000 	    2.0000 	    2.7818
    2.0066 	   29.9605 	   23.0000 	    2.0000 	    2.9378
    2.0371 	   30.0405 	   23.0000 	    2.0000 	    3.0978
    1.9150 	   30.1165 	   23.0000 	    2.0000 	    3.2498
    1.9303 	   30.1935 	   23.0000 	    2.0000 	    3.4038
    1.8997 	   30.2685 	   23.0000 	    2.0000 	    3.5538
    1.8387 	   30.3440 	   23.0000 	    2.0000 	    3.7048
    1.8692 	   30.4220 	   23.0000 	    2.0000 	    3.8609
    1.9303 	   30.4975 	   23.0000 	    2.0000 	    4.0119
    2.0066 	   30.5730 	   23.0000 	    2.0000 	    4.1629
    1.9455 	   30.6495 	   23.0000 	    2.0000 	    4.3159
    1.8692 	   30.7235 	   23.0000 	    2.0000 	    4.4639
    1.9455 	   30.8015 	   23.0000 	    2.0000 	    4.6199
    1.9913 	   30.8795 	   23.0000 	    2.0000 	    4.7759
    1.9913 	   30.9570 	   23.0000 	    2.0000 	    4.9309
    2.0676 	   31.0330 	   23.0000 	    2.0000 	    5.0829
    2.0676 	   31.1105 	   23.0000 	    2.0000 	    5.2379
    2.0523 	   31.1835 	   23.0000 	    2.0000 	    5.3839
    1.9913 	   31.2545 	   23.0000 	    2.0000 	    5.5260
    1.7929 	   31.3300 	   23.0000 	    2.0000 	    5.6770
    2.0676 	   31.4015 	   23.0000 	    2.0000 	    5.8200
    2.0218 	   31.4725 	   23.0000 	    2.0000 	    5.9620
    2.1286 	   31.5490 	   23.0000 	    2.0000 	    6.1150
    2.0066 	   31.6245 	   23.0000 	    2.0000 	    6.2660
    2.0676 	   31.7020 	   23.0000 	    2.0000 	    6.4210
    2.1439 	   31.7785 	   23.0000 	    2.0000 	    6.5740
    2.2049 	   31.8575 	   23.0000 	    2.0000 	    6.7320
    2.2049 	   31.9375 	   23.0000 	    2.0000 	    6.8920
    2.0218 	   32.0165 	   23.0000 	    2.0000 	    7.0500
    2.2049 	   32.0985 	   23.0000 	    2.0000 	    7.2140
    2.2354 	   32.1775 	   23.0000 	    2.0000 	    7.3721
    2.0066 	   32.2550 	   23.0000 	    2.0000 	    7.5271
    1.9608 	   32.3300 	   23.0000 	    2.0000 	    7.6771
    2.0676 	   32.4085 	   23.0000 	    2.0000 	    7.8341
    2.0829 	   32.4895 	   23.0000 	    2.0000 	    7.9961
    2.0676 	   32.5675 	   23.0000 	    2.0000 	    8.1521
    2.1744 	   32.6445 	   23.0000 	    2.0000 	    8.3061
    2.1897 	   32.7220 	   23.0000 	    2.0000 	    8.4611
    2.1134 	   32.8025 	   23.0000 	    2.0000 	    8.6221
    2.2965 	   32.8800 	   23.0000 	    2.0000 	    8.7771
    2.0676 	   32.9590 	   23.0000 	    2.0000 	    8.9351
    2.0218 	   33.0365 	   23.0000 	    2.0000 	    9.0902
    2.2507 	   33.1165 	   23.0000 	    2.0000 	    9.2502
    2.2354 	   33.1985 	   23.0000 	    2.0000 	    9.4142
    2.0829 	   33.2790 	   23.0000 	    2.0000 	    9.5752
    2.0676 	   33.3620 	   23.0000 	    2.0000 	    9.7412
    2.1439 	   33.4420 	   23.0000 	    2.0000 	    9.9012
    2.2049 	   33.5210 	   23.0000 	    2.0000 	   10.0592
    2.2812 	   33.6025 	   23.0000 	    2.0000 	   10.2222
    2.3270 	   33.6840 	   23.0000 	    2.0000 	   10.3852
    2.1744 	   33.7600 	   23.0000 	    2.0000 	   10.5372
    2.2354 	   33.8390 	   23.0000 	    2.0000 	   10.6952
    2.1744 	   33.9180 	   23.0000 	    2.0000 	   10.8533
    2.2202 	   33.9960 	   23.0000 	    2.0000 	   11.0093
    2.2202 	   34.0780 	   23.0000 	    2.0000 	   11.1733
    2.1744 	   34.1570 	   23.0000 	    2.0000 	   11.3313
    2.2660 	   34.2370 	   23.0000 	    2.0000 	   11.4913
    2.1592 	   34.3205 	   23.0000 	    2.0000 	   11.6583
    2.1439 	   34.3990 	   23.0000 	    2.0000 	   11.8153
    2.1744 	   34.4800 	   23.0000 	    2.0000 	   11.9773
    2.2354 	   34.5580 	   23.0000 	    2.0000 	   12.1333
    2.0981 	   34.6370 	   23.0000 	    2.0000 	   12.2913
    2.2965 	   34.7145 	   23.0000 	    2.0000 	   12.4463
    2.1897 	   34.7965 	   23.0000 	    2.0000 	   12.6104
    1.9913 	   34.8755 	   23.0000 	    2.0000 	   12.7684
    2.2507 	   34.9530 	   23.0000 	    2.0000 	   12.9234
    2.1744 	   35.0340 	   23.0000 	    2.0000 	   13.0854
    2.2049 	   35.1150 	   23.0000 	    2.0000 	   13.2474
    2.2660 	   35.1940 	   23.0000 	    2.0000 	   13.4054
    2.1439 	   35.2735 	   23.0000 	    2.0000 	   13.5644
    2.1439 	   35.3605 	   23.0000 	    2.0000 	   13.7384
    2.3575 	   35.4395 	   23.0000 	    2.0000 	   13.8964
    2.3270 	   35.5185 	   23.0000 	    2.0000 	   14.0544
    2.4796 	   35.5975 	   23.0000 	    2.0000 	   14.2124
    2.2202 	   35.6790 	   23.0000 	    2.0000 	   14.3755
    2.1592 	   35.7555 	   23.0000 	    2.0000 	   14.5285
    2.2965 	   35.8360 	   23.0000 	    2.0000 	   14.6895
    2.3575 	   35.9155 	   23.0000 	    2.0000 	   14.8485
    1.9303 	   35.9950 	   23.0000 	    2.0000 	   15.0075
    2.2202 	   36.0765 	   23.0000 	    2.0000 	   15.1705
    2.4033 	   36.1555 	   23.0000 	    2.0000 	   15.3285
    2.2354 	   36.2345 	   23.0000 	    2.0000 	   15.4865
    2.3117 	   36.3105 	   23.0000 	    2.0000 	   15.6385
    2.3270 	   36.3905 	   23.0000 	    2.0000 	   15.7985
    2.3423 	   36.4705 	   23.0000 	    2.0000 	   15.9585
    2.3270 	   36.5505 	   23.0000 	    2.0000 	   16.1186
    2.2202 	   36.6320 	   23.0000 	    2.0000 	   16.2816
    2.4186 	   36.7140 	   23.0000 	    2.0000 	   16.4456
    2.2507 	   36.7965 	   23.0000 	    2.0000 	   16.6096
    2.3575 	   36.8770 	   23.0000 	    2.0000 	   16.7716
    2.4491 	   36.9555 	   23.0000 	    2.0000 	   16.9286
    2.3728 	   37.0300 	   23.0000 	    2.0000 	   17.0776
    2.3270 	   37.1045 	   23.0000 	    2.0000 	   17.2266
    2.2660 	   37.1765 	   23.0000 	    2.0000 	   17.3706
    2.3117 	   37.2515 	   23.0000 	    2.0000 	   17.5206
    2.3575 	   37.3255 	   23.0000 	    2.0000 	   17.6686
    2.3575 	   37.4055 	   23.0000 	    2.0000 	   17.8287
    2.4643 	   37.4870 	   23.0000 	    2.0000 	   17.9917
    2.4186 	   37.5665 	   23.0000 	    2.0000 	   18.1507
    2.2202 	   37.6415 	   23.0000 	    2.0000 	   18.3007
    2.3270 	   37.7265 	   23.0000 	    2.0000 	   18.4707
    2.0676 	   37.8075 	   23.0000 	    2.0000 	   18.6327
    2.4491 	   37.8880 	   23.0000 	    2.0000 	   18.7927
    2.3270 	   37.9680 	   23.0000 	    2.0000 	   18.9527
    2.3728 	   38.0505 	   23.0000 	    2.0000 	   19.1177
    2.4948 	   38.1300 	   23.0000 	    2.0000 	   19.2767
    2.1134 	   38.2040 	   23.0000 	    2.0000 	   19.4247
    2.4643 	   38.2820 	   23.0000 	    2.0000 	   19.5808
    2.4491 	   38.3625 	   23.0000 	    2.0000 	   19.7418
    2.4033 	   38.4420 	   23.0000 	    2.0000 	   19.9008
    2.3880 	   38.5230 	   23.0000 	    2.0000 	   20.0628
    2.4796 	   38.6045 	   23.0000 	    2.0000 	   20.2258
    2.5711 	   38.6770 	   23.0000 	    2.0000 	   20.3708
    2.4796 	   38.7490 	   23.0000 	    2.0000 	   20.5148
    2.4338 	   38.8235 	   23.0000 	    2.0000 	   20.6638
    2.6627 	   38.8995 	   23.0000 	    2.0000 	   20.8158
    2.3728 	   38.9720 	   23.0000 	    2.0000 	   20.9608
    2.4948 	   39.0460 	   23.0000 	    2.0000 	   21.1088
    2.4491 	   39.1195 	   23.0000 	    2.0000 	   21.2559
    2.4948 	   39.1950 	   23.0000 	    2.0000 	   21.4069
    2.4796 	   39.2710 	   23.0000 	    2.0000 	   21.5589
    2.2660 	   39.3460 	   23.0000 	    2.0000 	   21.7089
    2.5101 	   39.4265 	   23.0000 	    2.0000 	   21.8699
    2.5254 	   39.5060 	   23.0000 	    2.0000 	   22.0289
    2.3575 	   39.5785 	   23.0000 	    2.0000 	   22.1739
    2.4033 	   39.6565 	   23.0000 	    2.0000 	   22.3299
    2.6017 	   39.7330 	   23.0000 	    2.0000 	   22.4829
    2.6474 	   39.8075 	   23.0000 	    2.0000 	   22.6319
    2.4948 	   39.8875 	   23.0000 	    2.0000 	   22.7919
    2.5406 	   39.9690 	   23.0000 	    2.0000 	   22.9549
    2.5406 	   40.0515 	   23.0000 	    2.0000 	   23.1200
    2.4491 	   40.1270 	   23.0000 	    2.0000 	   23.2710
    2.5101 	   40.1990 	   23.0000 	    2.0000 	   23.4150
    2.4338 	   40.2755 	   23.0000 	    2.0000 	   23.5680
    2.2354 	   40.3480 	   23.0000 	    2.0000 	   23.7130
    2.6017 	   40.4230 	   23.0000 	    2.0000 	   23.8630
    2.5711 	   40.5035 	   23.0000 	    2.0000 	   24.0240
    2.6017 	   40.5800 	   23.0000 	    2.0000 	   24.1770
    2.2965 	   40.6545 	   23.0000 	    2.0000 	   24.3260
    2.7237 	   40.7365 	   23.0000 	    2.0000 	   24.4900
    2.5254 	   40.8105 	   23.0000 	    2.0000 	   24.6380
    2.7085 	   40.8890 	   23.0000 	    2.0000 	   24.7951
    2.5254 	   40.9630 	   23.0000 	    2.0000 	   24.9431
    2.5406 	   41.0440 	   23.0000 	    2.0000 	   25.1051
    2.6169 	   41.1275 	   23.0000 	    2.0000 	   25.2721
    2.6322 	   41.2085 	   23.0000 	    2.0000 	   25.4341
    2.6627 	   41.2910 	   23.0000 	    2.0000 	   25.5991
    2.7085 	   41.3815 	   23.0000 	    2.0000 	   25.7801
    2.7543 	   41.4615 	   23.0000 	    2.0000 	   25.9401
    2.6474 	   41.5440 	   23.0000 	    2.0000 	   26.1051
    2.7848 	   41.6255 	   23.0000 	    2.0000 	   26.2681
    2.5864 	   41.7095 	   23.0000 	    2.0000 	   26.4361
    2.6780 	   41.7900 	   23.0000 	    2.0000 	   26.5962
    2.7237 	   41.8720 	   23.0000 	    2.0000 	   26.7612
    2.7390 	   41.9530 	   23.0000 	    2.0000 	   26.9232
    2.8763 	   42.0345 	   23.0000 	    2.0000 	   27.0862
    2.7085 	   42.1180 	   23.0000 	    2.0000 	   27.2532
    2.7085 	   42.2015 	   23.0000 	    2.0000 	   27.4202
    2.7695 	   42.2855 	   23.0000 	    2.0000 	   27.5882
    2.6780 	   42.3665 	   23.0000 	    2.0000 	   27.7502
    2.6780 	   42.4415 	   23.0000 	    2.0000 	   27.9002
    2.8305 	   42.5220 	   23.0000 	    2.0000 	   28.0612
    2.7390 	   42.6055 	   23.0000 	    2.0000 	   28.2283
    2.7390 	   42.6890 	   23.0000 	    2.0000 	   28.3953
    2.7085 	   42.7690 	   23.0000 	    2.0000 	   28.5553
    2.7695 	   42.8510 	   23.0000 	    2.0000 	   28.7193
    2.8000 	   42.9340 	   23.0000 	    2.0000 	   28.8853
    2.8458 	   43.0180 	   23.0000 	    2.0000 	   29.0533
    2.7543 	   43.1045 	   23.0000 	    2.0000 	   29.2263
    2.8611 	   43.1885 	   23.0000 	    2.0000 	   29.3943
    2.7237 	   43.2720 	   23.0000 	    2.0000 	   29.5613
    2.7085 	   43.3620 	   23.0000 	    2.0000 	   29.7413
    2.6627 	   43.4455 	   23.0000 	    2.0000 	   29.9083
    2.7543 	   43.5270 	   23.0000 	    2.0000 	   30.0714
    2.8611 	   43.6095 	   23.0000 	    2.0000 	   30.2364
    2.7390 	   43.6925 	   23.0000 	    2.0000 	   30.4024
    2.5864 	   43.7765 	   23.0000 	    2.0000 	   30.5704
    2.7695 	   43.8600 	   23.0000 	    2.0000 	   30.7374
    2.6017 	   43.9435 	   23.0000 	    2.0000 	   30.9044
    2.7848 	   44.0275 	   23.0000 	    2.0000 	   31.0724
    2.7848 	   44.1115 	   23.0000 	    2.0000 	   31.2404
    2.8000 	   44.1960 	   23.0000 	    2.0000 	   31.4094
    2.9526 	   44.2805 	   23.0000 	    2.0000 	   31.5784
    2.8763 	   44.3645 	   23.0000 	    2.0000 	   31.7465
    2.7695 	   44.4465 	   23.0000 	    2.0000 	   31.9105
    3.0289 	   44.5310 	   23.0000 	    2.0000 	   32.0795
    2.9221 	   44.6090 	   23.0000 	    2.0000 	   32.2355
    2.9221 	   44.6925 	   23.0000 	    2.0000 	   32.4025
    2.8153 	   44.7735 	   23.0000 	    2.0000 	   32.5645
    2.8763 	   44.8560 	   23.0000 	    2.0000 	   32.7295
    2.7695 	   44.9405 	   23.0000 	    2.0000 	   32.8985
    2.9068 	   45.0250 	   23.0000 	    2.0000 	   33.0675
    2.8153 	   45.1130 	   23.0000 	    2.0000 	   33.2435
    2.9068 	   45.1990 	   23.0000 	    2.0000 	   33.4155
    2.9526 	   45.2825 	   23.0000 	    2.0000 	   33.5826
    2.8305 	   45.3660 	   23.0000 	    2.0000 	   33.7496
    2.4948 	   45.4505 	   23.0000 	    2.0000 	   33.9186
    2.9068 	   45.5345 	   23.0000 	    2.0000 	   34.0866
    2.7848 	   45.6170 	   23.0000 	    2.0000 	   34.2516
    2.9068 	   45.7005 	   23.0000 	    2.0000 	   34.4186
    2.6017 	   45.7760 	   23.0000 	    2.0000 	   34.5696
    2.9526 	   45.8555 	   23.0000 	    2.0000 	   34.7286
    3.0900 	   45.9340 	   23.0000 	    2.0000 	   34.8856
    2.9679 	   46.0150 	   23.0000 	    2.0000 	   35.0476
    2.9984 	   46.1000 	   23.0000 	    2.0000 	   35.2177
    2.9526 	   46.1820 	   23.0000 	    2.0000 	   35.3817
    2.9984 	   46.2645 	   23.0000 	    2.0000 	   35.5467
    2.8305 	   46.3435 	   23.0000 	    2.0000 	   35.7047
    2.9984 	   46.4185 	   23.0000 	    2.0000 	   35.8547
    2.8916 	   46.4935 	   23.0000 	    2.0000 	   36.0047
    3.0594 	   46.5685 	   23.0000 	    2.0000 	   36.1547
    2.9221 	   46.6460 	   23.0000 	    2.0000 	   36.3087
    3.0137 	   46.7210 	   23.0000 	    2.0000 	   36.4587
    2.9068 	   46.7955 	   23.0000 	    2.0000 	   36.6077
    3.0594 	   46.8760 	   23.0000 	    2.0000 	   36.7687
    3.1510 	   46.9565 	   23.0000 	    2.0000 	   36.9297
    3.1968 	   47.0325 	   23.0000 	    2.0000 	   37.0818
    2.9679 	   47.1120 	   23.0000 	    2.0000 	   37.2408
    3.0900 	   47.1870 	   23.0000 	    2.0000 	   37.3908
    2.9526 	   47.2635 	   23.0000 	    2.0000 	   37.5438
    2.6932 	   47.3395 	   23.0000 	    2.0000 	   37.6958
    3.0442 	   47.4200 	   23.0000 	    2.0000 	   37.8568
    3.1968 	   47.5070 	   23.0000 	    2.0000 	   38.0308
    3.2120 	   47.5920 	   23.0000 	    2.0000 	   38.2008
    2.9679 	   47.6745 	   23.0000 	    2.0000 	   38.3658
    3.0442 	   47.7495 	   23.0000 	    2.0000 	   38.5158
    3.0137 	   47.8305 	   23.0000 	    2.0000 	   38.6778
    3.1052 	   47.9130 	   23.0000 	    2.0000 	   38.8429
    3.1357 	   47.9975 	   23.0000 	    2.0000 	   39.0119
    3.2425 	   48.0870 	   23.0000 	    2.0000 	   39.1909
    3.1205 	   48.1705 	   23.0000 	    2.0000 	   39.3579
    3.1205 	   48.2560 	   23.0000 	    2.0000 	   39.5289
    3.1662 	   48.3440 	   23.0000 	    2.0000 	   39.7049
    3.2120 	   48.4310 	   23.0000 	    2.0000 	   39.8789
    3.2731 	   48.5140 	   23.0000 	    2.0000 	   40.0449
    3.2731 	   48.5955 	   23.0000 	    2.0000 	   40.2079
    3.1815 	   48.6760 	   23.0000 	    2.0000 	   40.3689
    3.1510 	   48.7540 	   23.0000 	    2.0000 	   40.5250
    3.1968 	   48.8370 	   23.0000 	    2.0000 	   40.6910
    3.2883 	   48.9210 	   23.0000 	    2.0000 	   40.8590
    3.2273 	   49.0065 	   23.0000 	    2.0000 	   41.0300
    3.2578 	   49.0915 	   23.0000 	    2.0000 	   41.2000
    3.2273 	   49.1675 	   23.0000 	    2.0000 	   41.3520
    3.3646 	   49.2445 	   23.0000 	    2.0000 	   41.5060
    3.1357 	   49.3315 	   23.0000 	    2.0000 	   41.6800
    3.1052 	   49.4170 	   23.0000 	    2.0000 	   41.8510
    3.2425 	   49.5020 	   23.0000 	    2.0000 	   42.0210
    3.1815 	   49.5850 	   23.0000 	    2.0000 	   42.1870
    3.1815 	   49.6685 	   23.0000 	    2.0000 	   42.3541
    3.2273 	   49.7550 	   23.0000 	    2.0000 	   42.5271
    3.5172 	   49.8340 	   23.0000 	    2.0000 	   42.6851
    3.1968 	   49.9150 	   23.0000 	    2.0000 	   42.8471
    3.3036 	   50.0025 	   23.0000 	    2.0000 	   43.0221
    3.2883 	   50.0880 	   23.0000 	    2.0000 	   43.1931
    3.3036 	   50.1755 	   23.0000 	    2.0000 	   43.3681
    3.2883 	   50.2605 	   23.0000 	    2.0000 	   43.5381
    3.3951 	   50.3460 	   23.0000 	    2.0000 	   43.7091
    3.2578 	   50.4320 	   23.0000 	    2.0000 	   43.8811
    3.4409 	   50.5165 	   23.0000 	    2.0000 	   44.0502
    3.3341 	   50.5980 	   23.0000 	    2.0000 	   44.2132
    3.2578 	   50.6825 	   23.0000 	    2.0000 	   44.3822
    3.3036 	   50.7660 	   23.0000 	    2.0000 	   44.5492
    3.3494 	   50.8515 	   23.0000 	    2.0000 	   44.7202
    3.3494 	   50.9345 	   23.0000 	    2.0000 	   44.8862
    3.5172 	   51.0170 	   23.0000 	    2.0000 	   45.0512
    3.3646 	   51.1040 	   23.0000 	    2.0000 	   45.2252
    3.3341 	   51.1895 	   23.0000 	    2.0000 	   45.3962
    3.4714 	   51.2735 	   23.0000 	    2.0000 	   45.5642
    3.4104 	   51.3645 	   23.0000 	    2.0000 	   45.7463
    3.3951 	   51.4525 	   23.0000 	    2.0000 	   45.9223
    3.5172 	   51.5390 	   23.0000 	    2.0000 	   46.0953
    3.6088 	   51.6270 	   23.0000 	    2.0000 	   46.2713
    3.5782 	   51.7155 	   23.0000 	    2.0000 	   46.4483
    3.3951 	   51.8015 	   23.0000 	    2.0000 	   46.6203
    3.5019 	   51.8890 	   23.0000 	    2.0000 	   46.7953
    3.4867 	   51.9710 	   23.0000 	    2.0000 	   46.9593
    3.4257 	   52.0605 	   23.0000 	    2.0000 	   47.1383
    3.4867 	   52.1475 	   23.0000 	    2.0000 	   47.3123
    3.5172 	   52.2325 	   23.0000 	    2.0000 	   47.4824
    3.4714 	   52.3205 	   23.0000 	    2.0000 	   47.6584
    3.4714 	   52.4075 	   23.0000 	    2.0000 	   47.8324
    3.5325 	   52.4960 	   23.0000 	    2.0000 	   48.0094
    3.4867 	   52.5835 	   23.0000 	    2.0000 	   48.1844
    3.5172 	   52.6690 	   23.0000 	    2.0000 	   48.3554
    3.4714 	   52.7575 	   23.0000 	    2.0000 	   48.5324
    3.5630 	   52.8465 	   23.0000 	    2.0000 	   48.7104
    3.6393 	   52.9335 	   23.0000 	    2.0000 	   48.8844
    3.6088 	   53.0175 	   23.0000 	    2.0000 	   49.0524
    3.6393 	   53.1030 	   23.0000 	    2.0000 	   49.2234
    3.5782 	   53.1860 	   23.0000 	    2.0000 	   49.3895
    3.7461 	   53.2735 	   23.0000 	    2.0000 	   49.5645
    3.5477 	   53.3600 	   23.0000 	    2.0000 	   49.7375
    3.6088 	   53.4475 	   23.0000 	    2.0000 	   49.9125
    3.6240 	   53.5355 	   23.0000 	    2.0000 	   50.0885
    3.5935 	   53.6200 	   23.0000 	    2.0000 	   50.2575
    3.7308 	   53.7070 	   23.0000 	    2.0000 	   50.4315
    3.6851 	   53.7935 	   23.0000 	    2.0000 	   50.6045
    3.6698 	   53.8815 	   23.0000 	    2.0000 	   50.7805
    3.6393 	   53.9675 	   23.0000 	    2.0000 	   50.9526
    3.7766 	   54.0510 	   23.0000 	    2.0000 	   51.1196
    3.6851 	   54.1275 	   23.0000 	    2.0000 	   51.2726
    3.6240 	   54.2040 	   23.0000 	    2.0000 	   51.4256
    3.7308 	   54.2810 	   23.0000 	    2.0000 	   51.5796
    3.6545 	   54.3670 	   23.0000 	    2.0000 	   51.7516
    3.7919 	   54.4535 	   23.0000 	    2.0000 	   51.9246
    3.6851 	   54.5405 	   23.0000 	    2.0000 	   52.0986
    3.7003 	   54.6270 	   23.0000 	    2.0000 	   52.2716
    3.6851 	   54.7105 	   23.0000 	    2.0000 	   52.4386
    3.7766 	   54.7935 	   23.0000 	    2.0000 	   52.6046
    3.7461 	   54.8790 	   23.0000 	    2.0000 	   52.7757
    3.8987 	   54.9635 	   23.0000 	    2.0000 	   52.9447
    3.7766 	   55.0745 	   23.0000 	    2.0000 	   53.1667
    3.8376 	   55.1610 	   23.0000 	    2.0000 	   53.3397
    3.9139 	   55.2470 	   23.0000 	    2.0000 	   53.5117
    3.8529 	   55.3325 	   23.0000 	    2.0000 	   53.6827
    3.8224 	   55.4210 	   23.0000 	    2.0000 	   53.8587
    3.6545 	   55.5065 	   23.0000 	    2.0000 	   54.0297
    3.8682 	   55.5930 	   23.0000 	    2.0000 	   54.2027
    3.8376 	   55.6790 	   23.0000 	    2.0000 	   54.3747
    3.7613 	   55.7670 	   23.0000 	    2.0000 	   54.5508
    3.7003 	   55.8560 	   23.0000 	    2.0000 	   54.7288
    3.8529 	   55.9440 	   23.0000 	    2.0000 	   54.9048
    3.9597 	   56.0295 	   23.0000 	    2.0000 	   55.0758
    3.9750 	   56.1175 	   23.0000 	    2.0000 	   55.2518
    3.8987 	   56.2040 	   23.0000 	    2.0000 	   55.4248
    3.8224 	   56.2930 	   23.0000 	    2.0000 	   55.6028
    3.8071 	   56.3880 	   23.0000 	    2.0000 	   55.7928
    3.9292 	   56.4745 	   23.0000 	    2.0000 	   55.9658
    3.9292 	   56.5620 	   23.0000 	    2.0000 	   56.1408
    4.0208 	   56.6500 	   23.0000 	    2.0000 	   56.3169
    4.0360 	   56.7355 	   23.0000 	    2.0000 	   56.4879
    3.9139 	   56.8180 	   23.0000 	    2.0000 	   56.6529
    3.9902 	   56.8965 	   23.0000 	    2.0000 	   56.8099
    3.9597 	   56.9760 	   23.0000 	    2.0000 	   56.9689
    3.9902 	   57.0555 	   23.0000 	    2.0000 	   57.1279
    4.0055 	   57.1330 	   23.0000 	    2.0000 	   57.2829
    4.0665 	   57.2120 	   23.0000 	    2.0000 	   57.4409
    4.0818 	   57.2910 	   23.0000 	    2.0000 	   57.5989
    4.0970 	   57.3690 	   23.0000 	    2.0000 	   57.7549
    4.0665 	   57.4480 	   23.0000 	    2.0000 	   57.9129
    3.8071 	   57.5260 	   23.0000 	    2.0000 	   58.0690
    3.9902 	   57.6040 	   23.0000 	    2.0000 	   58.2250
    4.0513 	   57.6820 	   23.0000 	    2.0000 	   58.3810
    4.2039 	   57.7605 	   23.0000 	    2.0000 	   58.5380
    4.1276 	   57.8420 	   23.0000 	    2.0000 	   58.7010
    4.1123 	   57.9205 	   23.0000 	    2.0000 	   58.8580
    4.1428 	   57.9995 	   23.0000 	    2.0000 	   59.0160
    4.2191 	   58.0880 	   23.0000 	    2.0000 	   59.1930
    4.2039 	   58.1755 	   23.0000 	    2.0000 	   59.3680
    4.2649 	   58.2640 	   23.0000 	    2.0000 	   59.5450
    4.1428 	   58.3530 	   23.0000 	    2.0000 	   59.7231
    4.1123 	   58.4405 	   23.0000 	    2.0000 	   59.8981
    4.1428 	   58.5280 	   23.0000 	    3.0000 	    0.0731
    4.3259 	   58.6170 	   23.0000 	    3.0000 	    0.2511
    4.2649 	   58.7025 	   23.0000 	    3.0000 	    0.4221
    4.0513 	   58.7880 	   23.0000 	    3.0000 	    0.5931
    4.2191 	   58.8760 	   23.0000 	    3.0000 	    0.7691
    4.2649 	   58.9640 	   23.0000 	    3.0000 	    0.9451
    4.3717 	   59.0530 	   23.0000 	    3.0000 	    1.1231
    4.4480 	   59.1420 	   23.0000 	    3.0000 	    1.3011
    4.3412 	   59.2305 	   23.0000 	    3.0000 	    1.4782
    4.3565 	   59.3205 	   23.0000 	    3.0000 	    1.6582
    4.2802 	   59.4025 	   23.0000 	    3.0000 	    1.8222
    4.3412 	   59.4855 	   23.0000 	    3.0000 	    1.9882
    4.2496 	   59.5660 	   23.0000 	    3.0000 	    2.1492
    4.2039 	   59.6490 	   23.0000 	    3.0000 	    2.3152
    4.2496 	   59.7360 	   23.0000 	    3.0000 	    2.4892
    4.3412 	   59.8260 	   23.0000 	    3.0000 	    2.6692
    4.4022 	   59.9145 	   23.0000 	    3.0000 	    2.8462