File: instron/independence/relaxation/bad_l15w3_40_30_pre10/b_l15w3_40_60_stop1min_pre10.txt
Thayer School of Engineering        Instron 4442 Mechanical Testing System
7/5/2018 2:45:18 AM

  Force (N)	Extension (mm)	Not Used	Not Used	Not Used	     Hour	    Minute	    Second
    0.4654 	    1.0260 	    2.0000 	   46.0000 	   13.3441
    0.5570 	    1.2120 	    2.0000 	   46.0000 	   13.5302
    0.5570 	    1.3920 	    2.0000 	   46.0000 	   13.7102
    0.5570 	    1.5740 	    2.0000 	   46.0000 	   13.8922
    0.6180 	    1.7300 	    2.0000 	   46.0000 	   14.0482
    0.1755 	    1.8920 	    2.0000 	   46.0000 	   14.2102
    0.6027 	    2.0920 	    2.0000 	   46.0000 	   14.4102
    0.5722 	    2.2760 	    2.0000 	   46.0000 	   14.5942
    0.6638 	    2.4620 	    2.0000 	   46.0000 	   14.7792
    0.7706 	    2.6380 	    2.0000 	   46.0000 	   14.9562
    0.5112 	    2.8210 	    2.0000 	   46.0000 	   15.1392
    0.5722 	    3.0010 	    2.0000 	   46.0000 	   15.3193
    0.5417 	    3.1850 	    2.0000 	   46.0000 	   15.5033
    0.5417 	    3.3010 	    2.0000 	   46.0000 	   15.6193
    0.4196 	    3.4540 	    2.0000 	   46.0000 	   15.7723
    0.6790 	    3.5860 	    2.0000 	   46.0000 	   15.9043
    0.6027 	    3.7120 	    2.0000 	   46.0000 	   16.0303
    0.5875 	    3.8410 	    2.0000 	   46.0000 	   16.1593
    0.6180 	    3.9720 	    2.0000 	   46.0000 	   16.2903
    0.7401 	    4.1010 	    2.0000 	   46.0000 	   16.4193
    0.2365 	    4.2610 	    2.0000 	   46.0000 	   16.5793
    0.5264 	    4.4150 	    2.0000 	   46.0000 	   16.7333
    0.6485 	    4.5380 	    2.0000 	   46.0000 	   16.8563
    0.6790 	    4.6580 	    2.0000 	   46.0000 	   16.9764
    0.6180 	    4.7880 	    2.0000 	   46.0000 	   17.1054
    0.8011 	    4.9180 	    2.0000 	   46.0000 	   17.2354
    0.4807 	    5.0460 	    2.0000 	   46.0000 	   17.3624
    0.6790 	    5.1730 	    2.0000 	   46.0000 	   17.4904
    0.7248 	    5.3010 	    2.0000 	   46.0000 	   17.6184
    0.6790 	    5.4410 	    2.0000 	   46.0000 	   17.7584
    0.7095 	    5.5660 	    2.0000 	   46.0000 	   17.8834
    0.7858 	    5.6890 	    2.0000 	   46.0000 	   18.0064
    0.6943 	    5.8140 	    2.0000 	   46.0000 	   18.1314
    0.7553 	    5.9380 	    2.0000 	   46.0000 	   18.2554
    0.6790 	    6.0660 	    2.0000 	   46.0000 	   18.3834
    0.7095 	    6.1920 	    2.0000 	   46.0000 	   18.5094
    0.5722 	    6.3190 	    2.0000 	   46.0000 	   18.6364
    0.7248 	    6.4470 	    2.0000 	   46.0000 	   18.7645
    0.6485 	    6.5720 	    2.0000 	   46.0000 	   18.8895
    0.7401 	    6.6950 	    2.0000 	   46.0000 	   19.0125
    0.6790 	    6.8190 	    2.0000 	   46.0000 	   19.1365
    0.6332 	    6.9440 	    2.0000 	   46.0000 	   19.2615
    0.8621 	    7.0710 	    2.0000 	   46.0000 	   19.3885
    0.6638 	    7.1960 	    2.0000 	   46.0000 	   19.5135
    0.8316 	    7.3220 	    2.0000 	   46.0000 	   19.6395
    0.7248 	    7.4520 	    2.0000 	   46.0000 	   19.7695
    0.7248 	    7.5810 	    2.0000 	   46.0000 	   19.8985
    0.8774 	    7.7040 	    2.0000 	   46.0000 	   20.0215
    0.6638 	    7.8300 	    2.0000 	   46.0000 	   20.1475
    0.8164 	    7.9550 	    2.0000 	   46.0000 	   20.2725
    0.7095 	    8.0790 	    2.0000 	   46.0000 	   20.3965
    0.7553 	    8.2010 	    2.0000 	   46.0000 	   20.5186
    0.4654 	    8.3270 	    2.0000 	   46.0000 	   20.6446
    0.7553 	    8.4540 	    2.0000 	   46.0000 	   20.7716
    0.6485 	    8.5840 	    2.0000 	   46.0000 	   20.9016
    0.8316 	    8.7120 	    2.0000 	   46.0000 	   21.0296
    0.7553 	    8.8370 	    2.0000 	   46.0000 	   21.1546
    0.6485 	    8.9670 	    2.0000 	   46.0000 	   21.2846
    0.6638 	    9.1170 	    2.0000 	   46.0000 	   21.4346
    0.7553 	    9.2400 	    2.0000 	   46.0000 	   21.5576
    0.7553 	    9.3740 	    2.0000 	   46.0000 	   21.6916
    0.6790 	    9.5050 	    2.0000 	   46.0000 	   21.8226
    0.5875 	    9.6310 	    2.0000 	   46.0000 	   21.9486
    0.8621 	    9.7590 	    2.0000 	   46.0000 	   22.0766
    0.7248 	    9.8850 	    2.0000 	   46.0000 	   22.2027
    0.8469 	   10.0100 	    2.0000 	   46.0000 	   22.3277
    0.4807 	   10.1390 	    2.0000 	   46.0000 	   22.4567
    0.8621 	   10.2690 	    2.0000 	   46.0000 	   22.5867
    1.0147 	   10.3960 	    2.0000 	   46.0000 	   22.7137
    0.8621 	   10.5250 	    2.0000 	   46.0000 	   22.8427
    0.8164 	   10.6480 	    2.0000 	   46.0000 	   22.9657
    0.7706 	   10.7770 	    2.0000 	   46.0000 	   23.0947
    0.8164 	   10.9080 	    2.0000 	   46.0000 	   23.2257
    0.9232 	   11.0330 	    2.0000 	   46.0000 	   23.3507
    0.7401 	   11.1630 	    2.0000 	   46.0000 	   23.4807
    0.7401 	   11.2920 	    2.0000 	   46.0000 	   23.6097
    0.8316 	   11.4190 	    2.0000 	   46.0000 	   23.7367
    0.8316 	   11.5500 	    2.0000 	   46.0000 	   23.8677
    0.8316 	   11.6790 	    2.0000 	   46.0000 	   23.9968
    0.7858 	   11.8020 	    2.0000 	   46.0000 	   24.1198
    0.8774 	   11.9310 	    2.0000 	   46.0000 	   24.2488
    0.8927 	   12.0560 	    2.0000 	   46.0000 	   24.3738
    0.7706 	   12.1850 	    2.0000 	   46.0000 	   24.5028
    0.8011 	   12.3160 	    2.0000 	   46.0000 	   24.6338
    0.9232 	   12.4420 	    2.0000 	   46.0000 	   24.7598
    1.0605 	   12.5750 	    2.0000 	   46.0000 	   24.8928
    0.8927 	   12.7090 	    2.0000 	   46.0000 	   25.0268
    0.9232 	   12.8390 	    2.0000 	   46.0000 	   25.1568
    0.9232 	   12.9620 	    2.0000 	   46.0000 	   25.2798
    0.9995 	   13.0880 	    2.0000 	   46.0000 	   25.4058
    0.9537 	   13.2180 	    2.0000 	   46.0000 	   25.5358
    0.9079 	   13.3460 	    2.0000 	   46.0000 	   25.6638
    0.9079 	   13.4790 	    2.0000 	   46.0000 	   25.7969
    1.0605 	   13.6100 	    2.0000 	   46.0000 	   25.9279
    0.8774 	   13.7430 	    2.0000 	   46.0000 	   26.0609
    0.9995 	   13.8770 	    2.0000 	   46.0000 	   26.1949
    0.9384 	   14.0020 	    2.0000 	   46.0000 	   26.3199
    0.9689 	   14.1340 	    2.0000 	   46.0000 	   26.4519
    0.9384 	   14.2630 	    2.0000 	   46.0000 	   26.5809
    0.9537 	   14.3930 	    2.0000 	   46.0000 	   26.7109
    1.0147 	   14.5210 	    2.0000 	   46.0000 	   26.8389
    0.9842 	   14.6550 	    2.0000 	   46.0000 	   26.9729
    0.9537 	   14.7820 	    2.0000 	   46.0000 	   27.0999
    1.1063 	   14.9100 	    2.0000 	   46.0000 	   27.2279
    0.9384 	   15.0410 	    2.0000 	   46.0000 	   27.3589
    1.0605 	   15.1770 	    2.0000 	   46.0000 	   27.4950
    0.9384 	   15.3120 	    2.0000 	   46.0000 	   27.6300
    0.9232 	   15.4460 	    2.0000 	   46.0000 	   27.7640
    0.9079 	   15.5780 	    2.0000 	   46.0000 	   27.8960
    1.1215 	   15.7060 	    2.0000 	   46.0000 	   28.0240
    1.1215 	   15.8650 	    2.0000 	   46.0000 	   28.1830
    1.0452 	   15.9940 	    2.0000 	   46.0000 	   28.3120
    0.8164 	   16.1300 	    2.0000 	   46.0000 	   28.4480
    1.0300 	   16.2610 	    2.0000 	   46.0000 	   28.5790
    1.0910 	   16.3930 	    2.0000 	   46.0000 	   28.7110
    1.0605 	   16.5210 	    2.0000 	   46.0000 	   28.8390
    1.0910 	   16.6500 	    2.0000 	   46.0000 	   28.9680
    1.2131 	   16.7790 	    2.0000 	   46.0000 	   29.0970
    0.9842 	   16.9070 	    2.0000 	   46.0000 	   29.2251
    0.9842 	   17.0390 	    2.0000 	   46.0000 	   29.3571
    1.1673 	   17.1780 	    2.0000 	   46.0000 	   29.4961
    1.0300 	   17.3110 	    2.0000 	   46.0000 	   29.6291
    1.1521 	   17.4420 	    2.0000 	   46.0000 	   29.7601
    1.0910 	   17.5730 	    2.0000 	   46.0000 	   29.8911
    1.0605 	   17.7060 	    2.0000 	   46.0000 	   30.0241
    1.0300 	   17.8390 	    2.0000 	   46.0000 	   30.1571
    1.1521 	   17.9720 	    2.0000 	   46.0000 	   30.2901
    1.0605 	   18.1070 	    2.0000 	   46.0000 	   30.4251
    1.1368 	   18.2430 	    2.0000 	   46.0000 	   30.5611
    1.0605 	   18.3760 	    2.0000 	   46.0000 	   30.6941
    1.1826 	   18.5090 	    2.0000 	   46.0000 	   30.8271
    1.2131 	   18.6390 	    2.0000 	   46.0000 	   30.9572
    1.0910 	   18.7670 	    2.0000 	   46.0000 	   31.0852
    1.1521 	   18.8980 	    2.0000 	   46.0000 	   31.2162
    1.1978 	   19.0270 	    2.0000 	   46.0000 	   31.3452
    1.1521 	   19.1620 	    2.0000 	   46.0000 	   31.4802
    1.2436 	   19.2910 	    2.0000 	   46.0000 	   31.6092
    1.3657 	   19.4230 	    2.0000 	   46.0000 	   31.7412
    1.3199 	   19.5560 	    2.0000 	   46.0000 	   31.8742
    1.3046 	   19.6880 	    2.0000 	   46.0000 	   32.0062
    1.2131 	   19.8200 	    2.0000 	   46.0000 	   32.1382
    1.3657 	   19.9490 	    2.0000 	   46.0000 	   32.2672
    1.0300 	   20.0860 	    2.0000 	   46.0000 	   32.4042
    1.2131 	   20.2160 	    2.0000 	   46.0000 	   32.5342
    1.2436 	   20.3490 	    2.0000 	   46.0000 	   32.6672
    1.2284 	   20.4830 	    2.0000 	   46.0000 	   32.8013
    1.2131 	   20.6150 	    2.0000 	   46.0000 	   32.9333
    1.1826 	   20.7480 	    2.0000 	   46.0000 	   33.0663
    1.3504 	   20.8820 	    2.0000 	   46.0000 	   33.2003
    1.2589 	   21.0140 	    2.0000 	   46.0000 	   33.3323
    1.2741 	   21.1500 	    2.0000 	   46.0000 	   33.4683
    1.2131 	   21.2870 	    2.0000 	   46.0000 	   33.6053
    1.0452 	   21.4120 	    2.0000 	   46.0000 	   33.7303
    1.2436 	   21.5310 	    2.0000 	   46.0000 	   33.8493
    1.4115 	   21.6600 	    2.0000 	   46.0000 	   33.9783
    1.2741 	   21.7890 	    2.0000 	   46.0000 	   34.1073
    1.2284 	   21.9100 	    2.0000 	   46.0000 	   34.2283
    1.2284 	   22.0320 	    2.0000 	   46.0000 	   34.3503
    1.4267 	   22.1690 	    2.0000 	   46.0000 	   34.4874
    1.4725 	   22.3040 	    2.0000 	   46.0000 	   34.6214
    1.4572 	   22.4210 	    2.0000 	   46.0000 	   34.7384
    1.3962 	   22.5400 	    2.0000 	   46.0000 	   34.8574
    1.4420 	   22.6610 	    2.0000 	   46.0000 	   34.9784
    1.2436 	   22.7780 	    2.0000 	   46.0000 	   35.0954
    1.4420 	   22.9040 	    2.0000 	   46.0000 	   35.2214
    1.2284 	   23.0350 	    2.0000 	   46.0000 	   35.3524
    1.5488 	   23.1730 	    2.0000 	   46.0000 	   35.4904
    1.3809 	   23.3100 	    2.0000 	   46.0000 	   35.6274
    1.3657 	   23.4440 	    2.0000 	   46.0000 	   35.7614
    1.4420 	   23.5790 	    2.0000 	   46.0000 	   35.8964
    1.6861 	   23.7130 	    2.0000 	   46.0000 	   36.0304
    1.6709 	   23.8380 	    2.0000 	   46.0000 	   36.1554
    1.5488 	   23.9590 	    2.0000 	   46.0000 	   36.2765
    1.6403 	   24.0810 	    2.0000 	   46.0000 	   36.3985
    1.6709 	   24.2110 	    2.0000 	   46.0000 	   36.5285
    1.6403 	   24.3460 	    2.0000 	   46.0000 	   36.6635
    1.1978 	   24.4780 	    2.0000 	   46.0000 	   36.7955
    1.5335 	   24.6170 	    2.0000 	   46.0000 	   36.9345
    1.5640 	   24.7520 	    2.0000 	   46.0000 	   37.0695
    1.5640 	   24.8850 	    2.0000 	   46.0000 	   37.2025
    1.7319 	   25.0030 	    2.0000 	   46.0000 	   37.3205
    1.4878 	   25.1310 	    2.0000 	   46.0000 	   37.4485
    1.7014 	   25.2580 	    2.0000 	   46.0000 	   37.5755
    1.5640 	   25.4060 	    2.0000 	   46.0000 	   37.7235
    1.7166 	   25.5420 	    2.0000 	   46.0000 	   37.8595
    1.6403 	   25.6850 	    2.0000 	   46.0000 	   38.0026
    1.7014 	   25.8210 	    2.0000 	   46.0000 	   38.1386
    1.6861 	   25.9570 	    2.0000 	   46.0000 	   38.2746
    1.6709 	   26.0880 	    2.0000 	   46.0000 	   38.4056
    1.7014 	   26.2100 	    2.0000 	   46.0000 	   38.5276
    1.7472 	   26.3310 	    2.0000 	   46.0000 	   38.6486
    1.7777 	   26.4510 	    2.0000 	   46.0000 	   38.7686
    1.4267 	   26.5740 	    2.0000 	   46.0000 	   38.8916
    1.7319 	   26.6920 	    2.0000 	   46.0000 	   39.0096
    1.7777 	   26.8130 	    2.0000 	   46.0000 	   39.1306
    1.8387 	   26.9320 	    2.0000 	   46.0000 	   39.2496
    1.7472 	   27.0560 	    2.0000 	   46.0000 	   39.3736
    2.1134 	   27.1800 	    2.0000 	   46.0000 	   39.4976
    1.7777 	   27.3020 	    2.0000 	   46.0000 	   39.6196
    1.7929 	   27.4220 	    2.0000 	   46.0000 	   39.7397
    1.5335 	   27.5430 	    2.0000 	   46.0000 	   39.8607
    1.7777 	   27.6660 	    2.0000 	   46.0000 	   39.9837
    1.7624 	   27.7850 	    2.0000 	   46.0000 	   40.1027
    1.9608 	   27.9080 	    2.0000 	   46.0000 	   40.2257
    1.8692 	   28.0380 	    2.0000 	   46.0000 	   40.3557
    2.0523 	   28.1690 	    2.0000 	   46.0000 	   40.4867
    1.8845 	   28.3060 	    2.0000 	   46.0000 	   40.6237
    1.8997 	   28.4430 	    2.0000 	   46.0000 	   40.7607
    1.9608 	   28.5810 	    2.0000 	   46.0000 	   40.8987
    1.9760 	   28.7210 	    2.0000 	   46.0000 	   41.0387
    2.0066 	   28.8560 	    2.0000 	   46.0000 	   41.1737
    1.9455 	   28.9960 	    2.0000 	   46.0000 	   41.3137
    1.9455 	   29.1260 	    2.0000 	   46.0000 	   41.4438
    1.9608 	   29.2580 	    2.0000 	   46.0000 	   41.5758
    2.0981 	   29.3920 	    2.0000 	   46.0000 	   41.7098
    1.9608 	   29.5300 	    2.0000 	   46.0000 	   41.8478
    2.0676 	   29.6690 	    2.0000 	   46.0000 	   41.9868
    2.0371 	   29.7980 	    2.0000 	   46.0000 	   42.1158
    1.9455 	   29.9320 	    2.0000 	   46.0000 	   42.2498
    1.9608 	   30.0770 	    2.0000 	   46.0000 	   42.3948
    2.0523 	   30.2160 	    2.0000 	   46.0000 	   42.5338
    2.0981 	   30.3490 	    2.0000 	   46.0000 	   42.6668
    2.1286 	   30.4860 	    2.0000 	   46.0000 	   42.8038
    1.9760 	   30.6200 	    2.0000 	   46.0000 	   42.9378
    2.1439 	   30.7600 	    2.0000 	   46.0000 	   43.0778
    2.0829 	   30.8960 	    2.0000 	   46.0000 	   43.2139
    1.9913 	   31.0380 	    2.0000 	   46.0000 	   43.3559
    2.1592 	   31.1750 	    2.0000 	   46.0000 	   43.4929
    2.0829 	   31.3140 	    2.0000 	   46.0000 	   43.6319
    2.0218 	   31.4420 	    2.0000 	   46.0000 	   43.7599
    2.0676 	   31.5760 	    2.0000 	   46.0000 	   43.8939
    2.0218 	   31.7150 	    2.0000 	   46.0000 	   44.0329
    2.0523 	   31.8480 	    2.0000 	   46.0000 	   44.1659
    2.1592 	   31.9830 	    2.0000 	   46.0000 	   44.3009
    2.1286 	   32.1220 	    2.0000 	   46.0000 	   44.4399
    2.0829 	   32.2590 	    2.0000 	   46.0000 	   44.5769
    2.0218 	   32.3940 	    2.0000 	   46.0000 	   44.7119
    2.1744 	   32.5350 	    2.0000 	   46.0000 	   44.8529
    2.2965 	   32.6740 	    2.0000 	   46.0000 	   44.9920
    2.1439 	   32.8040 	    2.0000 	   46.0000 	   45.1220
    2.0676 	   32.9280 	    2.0000 	   46.0000 	   45.2460
    2.0371 	   33.0600 	    2.0000 	   46.0000 	   45.3780
    2.1592 	   33.2020 	    2.0000 	   46.0000 	   45.5200
    2.0523 	   33.3470 	    2.0000 	   46.0000 	   45.6650
    2.0829 	   33.4840 	    2.0000 	   46.0000 	   45.8020
    2.0218 	   33.6200 	    2.0000 	   46.0000 	   45.9380
    2.0523 	   33.7600 	    2.0000 	   46.0000 	   46.0780
    1.9455 	   33.9010 	    2.0000 	   46.0000 	   46.2190
    1.9760 	   34.0290 	    2.0000 	   46.0000 	   46.3470
    2.0066 	   34.1670 	    2.0000 	   46.0000 	   46.4850
    2.0066 	   34.3020 	    2.0000 	   46.0000 	   46.6200
    2.1744 	   34.4390 	    2.0000 	   46.0000 	   46.7571
    2.0371 	   34.5800 	    2.0000 	   46.0000 	   46.8981
    1.9455 	   34.7190 	    2.0000 	   46.0000 	   47.0371
    2.1134 	   34.8600 	    2.0000 	   46.0000 	   47.1781
    1.8692 	   35.0040 	    2.0000 	   46.0000 	   47.3221
    1.9303 	   35.1490 	    2.0000 	   46.0000 	   47.4671
    1.9150 	   35.2740 	    2.0000 	   46.0000 	   47.5921
    2.0371 	   35.4020 	    2.0000 	   46.0000 	   47.7201
    1.9760 	   35.5250 	    2.0000 	   46.0000 	   47.8431
    1.9455 	   35.6610 	    2.0000 	   46.0000 	   47.9791
    1.9608 	   35.8050 	    2.0000 	   46.0000 	   48.1231
    2.0066 	   35.9390 	    2.0000 	   46.0000 	   48.2571
    1.8082 	   36.0690 	    2.0000 	   46.0000 	   48.3871
    1.9760 	   36.1940 	    2.0000 	   46.0000 	   48.5122
    1.9913 	   36.3210 	    2.0000 	   46.0000 	   48.6392
    1.9303 	   36.4460 	    2.0000 	   46.0000 	   48.7642
    2.1134 	   36.5720 	    2.0000 	   46.0000 	   48.8902
    2.2660 	   36.6960 	    2.0000 	   46.0000 	   49.0142
    2.0981 	   36.8220 	    2.0000 	   46.0000 	   49.1402
    1.9760 	   36.9480 	    2.0000 	   46.0000 	   49.2662
    1.6861 	   37.0880 	    2.0000 	   46.0000 	   49.4062
    2.1897 	   37.2220 	    2.0000 	   46.0000 	   49.5402
    2.0981 	   37.3780 	    2.0000 	   46.0000 	   49.6962
    1.9608 	   37.5190 	    2.0000 	   46.0000 	   49.8372
    1.9455 	   37.6600 	    2.0000 	   46.0000 	   49.9782
    2.1134 	   37.8060 	    2.0000 	   46.0000 	   50.1242
    1.8997 	   37.9530 	    2.0000 	   46.0000 	   50.2713
    2.0371 	   38.0960 	    2.0000 	   46.0000 	   50.4143
    1.7166 	   38.2370 	    2.0000 	   46.0000 	   50.5553
    1.9150 	   38.3670 	    2.0000 	   46.0000 	   50.6853
    1.9608 	   38.4990 	    2.0000 	   46.0000 	   50.8173
    2.0371 	   38.6400 	    2.0000 	   46.0000 	   50.9583
    2.0066 	   38.7780 	    2.0000 	   46.0000 	   51.0963
    2.1897 	   38.9070 	    2.0000 	   46.0000 	   51.2253
    2.0371 	   39.0500 	    2.0000 	   46.0000 	   51.3683
    2.0066 	   39.1960 	    2.0000 	   46.0000 	   51.5143
    1.7014 	   39.3400 	    2.0000 	   46.0000 	   51.6583
    1.9608 	   39.4670 	    2.0000 	   46.0000 	   51.7853
    1.9608 	   39.5930 	    2.0000 	   46.0000 	   51.9114
    1.9760 	   39.7330 	    2.0000 	   46.0000 	   52.0504
    2.0676 	   39.8740 	    2.0000 	   46.0000 	   52.1914
    1.9150 	   40.0210 	    2.0000 	   46.0000 	   52.3384
    2.0523 	   40.1650 	    2.0000 	   46.0000 	   52.4824
    2.0829 	   40.2920 	    2.0000 	   46.0000 	   52.6094
    1.9760 	   40.4190 	    2.0000 	   46.0000 	   52.7364
    1.8387 	   40.5600 	    2.0000 	   46.0000 	   52.8774
    1.9150 	   40.7050 	    2.0000 	   46.0000 	   53.0224
    1.9150 	   40.8480 	    2.0000 	   46.0000 	   53.1654
    2.1286 	   40.9810 	    2.0000 	   46.0000 	   53.2984
    1.9455 	   41.1110 	    2.0000 	   46.0000 	   53.4284
    1.9150 	   41.2400 	    2.0000 	   46.0000 	   53.5574
    1.9303 	   41.3730 	    2.0000 	   46.0000 	   53.6905
    2.0676 	   41.5100 	    2.0000 	   46.0000 	   53.8275
    1.9608 	   41.6540 	    2.0000 	   46.0000 	   53.9715
    2.0371 	   41.7950 	    2.0000 	   46.0000 	   54.1125
    1.8997 	   41.9350 	    2.0000 	   46.0000 	   54.2525
    1.9608 	   42.0810 	    2.0000 	   46.0000 	   54.3985
    1.6403 	   42.2220 	    2.0000 	   46.0000 	   54.5395
    2.0218 	   42.3680 	    2.0000 	   46.0000 	   54.6855
    1.9303 	   42.5130 	    2.0000 	   46.0000 	   54.8305
    1.9303 	   42.6560 	    2.0000 	   46.0000 	   54.9735
    1.9303 	   42.7990 	    2.0000 	   46.0000 	   55.1165
    2.0066 	   42.9430 	    2.0000 	   46.0000 	   55.2605
    1.9608 	   43.0910 	    2.0000 	   46.0000 	   55.4086
    1.9760 	   43.2350 	    2.0000 	   46.0000 	   55.5526
    2.0981 	   43.3830 	    2.0000 	   46.0000 	   55.7006
    1.9760 	   43.5280 	    2.0000 	   46.0000 	   55.8456
    2.1592 	   43.6720 	    2.0000 	   46.0000 	   55.9896
    2.0829 	   43.8130 	    2.0000 	   46.0000 	   56.1306
    1.9913 	   43.9420 	    2.0000 	   46.0000 	   56.2596
    1.9760 	   44.0760 	    2.0000 	   46.0000 	   56.3936
    2.0218 	   44.2240 	    2.0000 	   46.0000 	   56.5416
    1.8235 	   44.3710 	    2.0000 	   46.0000 	   56.6886
    2.0218 	   44.5220 	    2.0000 	   46.0000 	   56.8396
    2.0066 	   44.6680 	    2.0000 	   46.0000 	   56.9856
    1.7929 	   44.8180 	    2.0000 	   46.0000 	   57.1356
    2.1744 	   44.9600 	    2.0000 	   46.0000 	   57.2777
    1.9303 	   45.1090 	    2.0000 	   46.0000 	   57.4267
    1.9455 	   45.2540 	    2.0000 	   46.0000 	   57.5717
    2.0981 	   45.4120 	    2.0000 	   46.0000 	   57.7297
    2.0523 	   45.5580 	    2.0000 	   46.0000 	   57.8757
    1.8997 	   45.6940 	    2.0000 	   46.0000 	   58.0117
    2.0218 	   45.8260 	    2.0000 	   46.0000 	   58.1437
    1.9150 	   45.9570 	    2.0000 	   46.0000 	   58.2747
    1.9608 	   46.0920 	    2.0000 	   46.0000 	   58.4097
    1.9608 	   46.2230 	    2.0000 	   46.0000 	   58.5407
    1.9913 	   46.3680 	    2.0000 	   46.0000 	   58.6857
    2.1134 	   46.5160 	    2.0000 	   46.0000 	   58.8337
    1.9303 	   46.6660 	    2.0000 	   46.0000 	   58.9838
    1.9303 	   46.8130 	    2.0000 	   46.0000 	   59.1308
    1.9303 	   46.9560 	    2.0000 	   46.0000 	   59.2738
    1.9455 	   47.1000 	    2.0000 	   46.0000 	   59.4178
    2.0523 	   47.2440 	    2.0000 	   46.0000 	   59.5618
    1.9608 	   47.3890 	    2.0000 	   46.0000 	   59.7068
    2.0676 	   47.5380 	    2.0000 	   46.0000 	   59.8558
    1.8387 	   47.6850 	    2.0000 	   47.0000 	    0.0028
    2.1592 	   47.8290 	    2.0000 	   47.0000 	    0.1468
    2.0066 	   47.9700 	    2.0000 	   47.0000 	    0.2878
    2.0066 	   48.1220 	    2.0000 	   47.0000 	    0.4398
    1.9608 	   48.2650 	    2.0000 	   47.0000 	    0.5828
    1.9760 	   48.4140 	    2.0000 	   47.0000 	    0.7319
    2.0218 	   48.5620 	    2.0000 	   47.0000 	    0.8799
    1.9913 	   48.7110 	    2.0000 	   47.0000 	    1.0289
    2.1439 	   48.8670 	    2.0000 	   47.0000 	    1.1839
    2.0829 	   49.0180 	    2.0000 	   47.0000 	    1.3359
    1.9455 	   49.1700 	    2.0000 	   47.0000 	    1.4879
    2.1134 	   49.3160 	    2.0000 	   47.0000 	    1.6339
    1.9303 	   49.4700 	    2.0000 	   47.0000 	    1.7879
    2.1439 	   49.6030 	    2.0000 	   47.0000 	    1.9209
    1.8540 	   49.7410 	    2.0000 	   47.0000 	    2.0589
    2.0676 	   49.8780 	    2.0000 	   47.0000 	    2.1959
    1.8997 	   50.0130 	    2.0000 	   47.0000 	    2.3309
    1.8845 	   50.1530 	    2.0000 	   47.0000 	    2.4710
    1.8540 	   50.2910 	    2.0000 	   47.0000 	    2.6090
    1.8692 	   50.4410 	    2.0000 	   47.0000 	    2.7590
    2.0523 	   50.5930 	    2.0000 	   47.0000 	    2.9110
    1.7624 	   50.7300 	    2.0000 	   47.0000 	    3.0480
    2.0066 	   50.8730 	    2.0000 	   47.0000 	    3.1910
    1.9608 	   51.0270 	    2.0000 	   47.0000 	    3.3450
    1.9150 	   51.1800 	    2.0000 	   47.0000 	    3.4980
    1.9303 	   51.3400 	    2.0000 	   47.0000 	    3.6580
    1.8997 	   51.4740 	    2.0000 	   47.0000 	    3.7920
    2.1134 	   51.6110 	    2.0000 	   47.0000 	    3.9290
    1.8692 	   51.7450 	    2.0000 	   47.0000 	    4.0630
    2.0218 	   51.8800 	    2.0000 	   47.0000 	    4.1981
    2.0981 	   52.0330 	    2.0000 	   47.0000 	    4.3511
    1.9303 	   52.1880 	    2.0000 	   47.0000 	    4.5061
    1.9913 	   52.3360 	    2.0000 	   47.0000 	    4.6541
    1.8692 	   52.4900 	    2.0000 	   47.0000 	    4.8081
    1.9608 	   52.6410 	    2.0000 	   47.0000 	    4.9591
    1.9150 	   52.7930 	    2.0000 	   47.0000 	    5.1111
    1.9608 	   52.9470 	    2.0000 	   47.0000 	    5.2651
    2.1134 	   53.1060 	    2.0000 	   47.0000 	    5.4241
    2.0066 	   53.2550 	    2.0000 	   47.0000 	    5.5731
    1.9760 	   53.4180 	    2.0000 	   47.0000 	    5.7361
    1.9150 	   53.5680 	    2.0000 	   47.0000 	    5.8861
    2.0676 	   53.7180 	    2.0000 	   47.0000 	    6.0362
    1.9303 	   53.8620 	    2.0000 	   47.0000 	    6.1802
    1.9760 	   54.0020 	    2.0000 	   47.0000 	    6.3202
    1.6251 	   54.1540 	    2.0000 	   47.0000 	    6.4722
    1.8540 	   54.3030 	    2.0000 	   47.0000 	    6.6212
    2.0981 	   54.4550 	    2.0000 	   47.0000 	    6.7732
    2.0676 	   54.6070 	    2.0000 	   47.0000 	    6.9252
    2.0371 	   54.7610 	    2.0000 	   47.0000 	    7.0792
    1.9150 	   54.9150 	    2.0000 	   47.0000 	    7.2332
    2.0218 	   55.0680 	    2.0000 	   47.0000 	    7.3862
    1.9608 	   55.2240 	    2.0000 	   47.0000 	    7.5422
    1.8235 	   55.3790 	    2.0000 	   47.0000 	    7.6973
    1.8692 	   55.5300 	    2.0000 	   47.0000 	    7.8483
    1.7777 	   55.6850 	    2.0000 	   47.0000 	    8.0033
    1.9455 	   55.8370 	    2.0000 	   47.0000 	    8.1553
    1.8997 	   55.9940 	    2.0000 	   47.0000 	    8.3123
    2.0829 	   56.1500 	    2.0000 	   47.0000 	    8.4683
    1.9608 	   56.3050 	    2.0000 	   47.0000 	    8.6233
    1.9303 	   56.4600 	    2.0000 	   47.0000 	    8.7783
    1.9913 	   56.6050 	    2.0000 	   47.0000 	    8.9233
    1.8540 	   56.7600 	    2.0000 	   47.0000 	    9.0783
    1.9608 	   56.9010 	    2.0000 	   47.0000 	    9.2193
    2.0523 	   57.0380 	    2.0000 	   47.0000 	    9.3563
    1.8997 	   57.1810 	    2.0000 	   47.0000 	    9.4984
    2.0066 	   57.3250 	    2.0000 	   47.0000 	    9.6424
    1.9303 	   57.4620 	    2.0000 	   47.0000 	    9.7794
    1.9760 	   57.6150 	    2.0000 	   47.0000 	    9.9324
    2.0829 	   57.7550 	    2.0000 	   47.0000 	   10.0724
    1.8235 	   57.8950 	    2.0000 	   47.0000 	   10.2124
    2.0523 	   58.0320 	    2.0000 	   47.0000 	   10.3494
    1.7624 	   58.1880 	    2.0000 	   47.0000 	   10.5054
    2.0218 	   58.3300 	    2.0000 	   47.0000 	   10.6474
    1.9150 	   58.4690 	    2.0000 	   47.0000 	   10.7864
    1.9455 	   58.6150 	    2.0000 	   47.0000 	   10.9324
    1.8845 	   58.7710 	    2.0000 	   47.0000 	   11.0884
    2.0523 	   58.9280 	    2.0000 	   47.0000 	   11.2455
    1.9913 	   59.0840 	    2.0000 	   47.0000 	   11.4015
    1.9150 	   59.2430 	    2.0000 	   47.0000 	   11.5605
    1.9150 	   59.3990 	    2.0000 	   47.0000 	   11.7165
    1.9608 	   59.5510 	    2.0000 	   47.0000 	   11.8685
    1.8997 	   59.7040 	    2.0000 	   47.0000 	   12.0215
    1.8845 	   59.8600 	    2.0000 	   47.0000 	   12.1775
    1.8997 	   60.0140 	    2.0000 	   47.0000 	   12.3315
    1.9913 	   60.1670 	    2.0000 	   47.0000 	   12.4845
    1.9455 	   60.3200 	    2.0000 	   47.0000 	   12.6375
    1.9913 	   60.4770 	    2.0000 	   47.0000 	   12.7945
    1.9608 	   60.6320 	    2.0000 	   47.0000 	   12.9496
    1.9455 	   60.7880 	    2.0000 	   47.0000 	   13.1056
    1.7166 	   60.9470 	    2.0000 	   47.0000 	   13.2646
    1.9760 	   61.1030 	    2.0000 	   47.0000 	   13.4206
    1.9303 	   61.2610 	    2.0000 	   47.0000 	   13.5786
    1.8997 	   61.4190 	    2.0000 	   47.0000 	   13.7366
    1.9913 	   61.5750 	    2.0000 	   47.0000 	   13.8926
    1.9303 	   61.7260 	    2.0000 	   47.0000 	   14.0436
    2.0676 	   61.8700 	    2.0000 	   47.0000 	   14.1876
    1.9760 	   62.0120 	    2.0000 	   47.0000 	   14.3296
    1.9303 	   62.1630 	    2.0000 	   47.0000 	   14.4806
    1.8692 	   62.3120 	    2.0000 	   47.0000 	   14.6296
    2.0218 	   62.4710 	    2.0000 	   47.0000 	   14.7887
    1.8692 	   62.6270 	    2.0000 	   47.0000 	   14.9447
    1.8845 	   62.7750 	    2.0000 	   47.0000 	   15.0927
    1.9150 	   62.9280 	    2.0000 	   47.0000 	   15.2457
    1.8387 	   63.0830 	    2.0000 	   47.0000 	   15.4007
    1.7777 	   63.2350 	    2.0000 	   47.0000 	   15.5527
    1.8235 	   63.3910 	    2.0000 	   47.0000 	   15.7087
    2.0218 	   63.5460 	    2.0000 	   47.0000 	   15.8637
    1.8540 	   63.7020 	    2.0000 	   47.0000 	   16.0197
    1.9608 	   63.8590 	    2.0000 	   47.0000 	   16.1767
    2.0981 	   64.0140 	    2.0000 	   47.0000 	   16.3317
    1.8692 	   64.1730 	    2.0000 	   47.0000 	   16.4908
    2.0218 	   64.3300 	    2.0000 	   47.0000 	   16.6478
    2.0523 	   64.4870 	    2.0000 	   47.0000 	   16.8048
    2.0523 	   64.6440 	    2.0000 	   47.0000 	   16.9618
    1.9913 	   64.7960 	    2.0000 	   47.0000 	   17.1138
    2.0981 	   64.9420 	    2.0000 	   47.0000 	   17.2598
    1.9150 	   65.0880 	    2.0000 	   47.0000 	   17.4058
    1.8082 	   65.2440 	    2.0000 	   47.0000 	   17.5618
    1.9303 	   65.4000 	    2.0000 	   47.0000 	   17.7178
    1.9303 	   65.5480 	    2.0000 	   47.0000 	   17.8658
    1.8540 	   65.6930 	    2.0000 	   47.0000 	   18.0108
    1.9760 	   65.8350 	    2.0000 	   47.0000 	   18.1529
    2.0218 	   65.9820 	    2.0000 	   47.0000 	   18.2999
    1.8845 	   66.1280 	    2.0000 	   47.0000 	   18.4459
    2.0829 	   66.2890 	    2.0000 	   47.0000 	   18.6069
    1.9455 	   66.4460 	    2.0000 	   47.0000 	   18.7639
    1.8692 	   66.6080 	    2.0000 	   47.0000 	   18.9259
    1.9455 	   66.7620 	    2.0000 	   47.0000 	   19.0799
    2.0981 	   66.9140 	    2.0000 	   47.0000 	   19.2319
    2.0066 	   67.0700 	    2.0000 	   47.0000 	   19.3879
    1.8997 	   67.2340 	    2.0000 	   47.0000 	   19.5519
    2.1134 	   67.4000 	    2.0000 	   47.0000 	   19.7179
    2.0523 	   67.5620 	    2.0000 	   47.0000 	   19.8799
    1.8845 	   67.7200 	    2.0000 	   47.0000 	   20.0380
    1.8997 	   67.8810 	    2.0000 	   47.0000 	   20.1990
    1.8997 	   68.0390 	    2.0000 	   47.0000 	   20.3570
    2.0218 	   68.2010 	    2.0000 	   47.0000 	   20.5190
    1.9913 	   68.3590 	    2.0000 	   47.0000 	   20.6770
    1.9760 	   68.5140 	    2.0000 	   47.0000 	   20.8320
    1.7166 	   68.6760 	    2.0000 	   47.0000 	   20.9940
    1.8997 	   68.8340 	    2.0000 	   47.0000 	   21.1520
    1.8997 	   68.9990 	    2.0000 	   47.0000 	   21.3170
    1.8692 	   69.1600 	    2.0000 	   47.0000 	   21.4780
    1.8997 	   69.3400 	    2.0000 	   47.0000 	   21.6581
    1.5946 	   69.4970 	    2.0000 	   47.0000 	   21.8151
    2.0981 	   69.6560 	    2.0000 	   47.0000 	   21.9741
    2.0371 	   69.8190 	    2.0000 	   47.0000 	   22.1371
    2.0371 	   69.9790 	    2.0000 	   47.0000 	   22.2971
    2.0218 	   70.1440 	    2.0000 	   47.0000 	   22.4621
    2.0523 	   70.3050 	    2.0000 	   47.0000 	   22.6231
    1.8845 	   70.4650 	    2.0000 	   47.0000 	   22.7831
    1.9913 	   70.6120 	    2.0000 	   47.0000 	   22.9301
    1.8387 	   70.7730 	    2.0000 	   47.0000 	   23.0911
    1.9760 	   70.9220 	    2.0000 	   47.0000 	   23.2401
    1.9455 	   71.0700 	    2.0000 	   47.0000 	   23.3881
    1.9760 	   71.2310 	    2.0000 	   47.0000 	   23.5492
    1.9303 	   71.3940 	    2.0000 	   47.0000 	   23.7122
    1.8997 	   71.5540 	    2.0000 	   47.0000 	   23.8722
    2.0218 	   71.7210 	    2.0000 	   47.0000 	   24.0392
    1.8692 	   71.8890 	    2.0000 	   47.0000 	   24.2072
    1.9455 	   72.0500 	    2.0000 	   47.0000 	   24.3682
    2.0371 	   72.2150 	    2.0000 	   47.0000 	   24.5332
    1.8845 	   72.3760 	    2.0000 	   47.0000 	   24.6942
    1.8845 	   72.5400 	    2.0000 	   47.0000 	   24.8582
    1.8387 	   72.6950 	    2.0000 	   47.0000 	   25.0132
    2.0981 	   72.8470 	    2.0000 	   47.0000 	   25.1653
    1.8387 	   73.0130 	    2.0000 	   47.0000 	   25.3303
    1.8540 	   73.1730 	    2.0000 	   47.0000 	   25.4913
    1.6556 	   73.3400 	    2.0000 	   47.0000 	   25.6583
    1.8845 	   73.4970 	    2.0000 	   47.0000 	   25.8153
    1.8845 	   73.6590 	    2.0000 	   47.0000 	   25.9773
    1.9913 	   73.8190 	    2.0000 	   47.0000 	   26.1373
    1.8540 	   73.9830 	    2.0000 	   47.0000 	   26.3013
    1.9303 	   74.1500 	    2.0000 	   47.0000 	   26.4683
    1.9760 	   74.3090 	    2.0000 	   47.0000 	   26.6273
    1.9608 	   74.4700 	    2.0000 	   47.0000 	   26.7883
    2.0523 	   74.6320 	    2.0000 	   47.0000 	   26.9494
    1.7472 	   74.7920 	    2.0000 	   47.0000 	   27.1094
    2.1592 	   74.9440 	    2.0000 	   47.0000 	   27.2614
    1.9608 	   75.0870 	    2.0000 	   47.0000 	   27.4044
    1.9455 	   75.2450 	    2.0000 	   47.0000 	   27.5624
    1.8540 	   75.4010 	    2.0000 	   47.0000 	   27.7184
    1.8997 	   75.5630 	    2.0000 	   47.0000 	   27.8804
    2.0066 	   75.7210 	    2.0000 	   47.0000 	   28.0384
    1.9760 	   75.8670 	    2.0000 	   47.0000 	   28.1844
    1.7014 	   76.0160 	    2.0000 	   47.0000 	   28.3334
    1.9760 	   76.1660 	    2.0000 	   47.0000 	   28.4834
    1.7624 	   76.3240 	    2.0000 	   47.0000 	   28.6415
    1.8845 	   76.4730 	    2.0000 	   47.0000 	   28.7905
    2.0218 	   76.6190 	    2.0000 	   47.0000 	   28.9365
    1.9455 	   76.7670 	    2.0000 	   47.0000 	   29.0845
    1.9760 	   76.9130 	    2.0000 	   47.0000 	   29.2305
    1.9303 	   77.0580 	    2.0000 	   47.0000 	   29.3755
    2.0218 	   77.2120 	    2.0000 	   47.0000 	   29.5295
    1.9150 	   77.3830 	    2.0000 	   47.0000 	   29.7005
    1.8845 	   77.5530 	    2.0000 	   47.0000 	   29.8705
    1.8235 	   77.7140 	    2.0000 	   47.0000 	   30.0315
    1.9913 	   77.8750 	    2.0000 	   47.0000 	   30.1925
    1.9303 	   78.0370 	    2.0000 	   47.0000 	   30.3545
    1.9608 	   78.1860 	    2.0000 	   47.0000 	   30.5036
    2.0066 	   78.3340 	    2.0000 	   47.0000 	   30.6516
    1.9150 	   78.4880 	    2.0000 	   47.0000 	   30.8056
    1.8082 	   78.6400 	    2.0000 	   47.0000 	   30.9576
    2.0066 	   78.7890 	    2.0000 	   47.0000 	   31.1066
    1.9608 	   78.9380 	    2.0000 	   47.0000 	   31.2556
    1.9608 	   79.0960 	    2.0000 	   47.0000 	   31.4136
    1.8082 	   79.2530 	    2.0000 	   47.0000 	   31.5706
    1.9303 	   79.4220 	    2.0000 	   47.0000 	   31.7396
    1.9608 	   79.5740 	    2.0000 	   47.0000 	   31.8916
    1.9303 	   79.7290 	    2.0000 	   47.0000 	   32.0466
    1.8845 	   79.8790 	    2.0000 	   47.0000 	   32.1967
    1.8692 	   80.0290 	    2.0000 	   47.0000 	   32.3467
    2.1134 	   80.1880 	    2.0000 	   47.0000 	   32.5057
    1.9608 	   80.3400 	    2.0000 	   47.0000 	   32.6577
    1.8540 	   80.4940 	    2.0000 	   47.0000 	   32.8117
    1.8387 	   80.6480 	    2.0000 	   47.0000 	   32.9657
    2.0371 	   80.8180 	    2.0000 	   47.0000 	   33.1357
    1.7014 	   80.9810 	    2.0000 	   47.0000 	   33.2987
    1.7777 	   81.1420 	    2.0000 	   47.0000 	   33.4597
    1.8845 	   81.2920 	    2.0000 	   47.0000 	   33.6097
    2.0218 	   81.4660 	    2.0000 	   47.0000 	   33.7837
    1.8845 	   81.6340 	    2.0000 	   47.0000 	   33.9518
    2.0218 	   81.8020 	    2.0000 	   47.0000 	   34.1198
    1.9455 	   81.9670 	    2.0000 	   47.0000 	   34.2848
    2.0676 	   82.1350 	    2.0000 	   47.0000 	   34.4528
    2.1134 	   82.3030 	    2.0000 	   47.0000 	   34.6208
    1.9303 	   82.4600 	    2.0000 	   47.0000 	   34.7778
    1.9303 	   82.6210 	    2.0000 	   47.0000 	   34.9388
    1.8845 	   82.7910 	    2.0000 	   47.0000 	   35.1088
    1.6556 	   82.9590 	    2.0000 	   47.0000 	   35.2768
    1.8845 	   83.1230 	    2.0000 	   47.0000 	   35.4408
    2.0218 	   83.2910 	    2.0000 	   47.0000 	   35.6088
    1.9608 	   83.4680 	    2.0000 	   47.0000 	   35.7859
    1.9150 	   83.6320 	    2.0000 	   47.0000 	   35.9499
    1.9455 	   83.7990 	    2.0000 	   47.0000 	   36.1169
    1.8692 	   83.9720 	    2.0000 	   47.0000 	   36.2899
    1.8845 	   84.1430 	    2.0000 	   47.0000 	   36.4609
    1.9760 	   84.3120 	    2.0000 	   47.0000 	   36.6299
    1.8387 	   84.4810 	    2.0000 	   47.0000 	   36.7989
    1.8997 	   84.6460 	    2.0000 	   47.0000 	   36.9639
    1.9760 	   84.7980 	    2.0000 	   47.0000 	   37.1159
    1.8997 	   84.9500 	    2.0000 	   47.0000 	   37.2679
    1.8997 	   85.1170 	    2.0000 	   47.0000 	   37.4350
    1.7929 	   85.2850 	    2.0000 	   47.0000 	   37.6030
    1.8845 	   85.4380 	    2.0000 	   47.0000 	   37.7560
    1.9760 	   85.6040 	    2.0000 	   47.0000 	   37.9220
    1.9608 	   85.7730 	    2.0000 	   47.0000 	   38.0910
    1.8997 	   85.9440 	    2.0000 	   47.0000 	   38.2620
    1.6098 	   86.1140 	    2.0000 	   47.0000 	   38.4320
    1.8845 	   86.2820 	    2.0000 	   47.0000 	   38.6000
    2.0371 	   86.4440 	    2.0000 	   47.0000 	   38.7620
    1.9608 	   86.5960 	    2.0000 	   47.0000 	   38.9140
    2.1134 	   86.7500 	    2.0000 	   47.0000 	   39.0680
    1.8692 	   86.9010 	    2.0000 	   47.0000 	   39.2191
    1.7929 	   87.0630 	    2.0000 	   47.0000 	   39.3811
    1.9150 	   87.2170 	    2.0000 	   47.0000 	   39.5351
    1.9760 	   87.3780 	    2.0000 	   47.0000 	   39.6961
    2.0523 	   87.5340 	    2.0000 	   47.0000 	   39.8521
    2.0523 	   87.6870 	    2.0000 	   47.0000 	   40.0051
    1.9303 	   87.8400 	    2.0000 	   47.0000 	   40.1581
    1.9608 	   88.0040 	    2.0000 	   47.0000 	   40.3221
    2.0371 	   88.1770 	    2.0000 	   47.0000 	   40.4951
    1.8845 	   88.3440 	    2.0000 	   47.0000 	   40.6621
    1.8235 	   88.4980 	    2.0000 	   47.0000 	   40.8161
    1.8540 	   88.6530 	    2.0000 	   47.0000 	   40.9712
    1.8540 	   88.8120 	    2.0000 	   47.0000 	   41.1302
    1.9608 	   88.9750 	    2.0000 	   47.0000 	   41.2932
    1.9608 	   89.1300 	    2.0000 	   47.0000 	   41.4482
    1.7777 	   89.2960 	    2.0000 	   47.0000 	   41.6142
    1.9150 	   89.4680 	    2.0000 	   47.0000 	   41.7862
    1.9760 	   89.6360 	    2.0000 	   47.0000 	   41.9542
    1.9150 	   89.8070 	    2.0000 	   47.0000 	   42.1252
    1.9760 	   89.9810 	    2.0000 	   47.0000 	   42.2992
    1.5946 	   90.1520 	    2.0000 	   47.0000 	   42.4702
    1.9760 	   90.3210 	    2.0000 	   47.0000 	   42.6393
    1.9150 	   90.4910 	    2.0000 	   47.0000 	   42.8093
    1.9150 	   90.6600 	    2.0000 	   47.0000 	   42.9783
    1.9150 	   90.8340 	    2.0000 	   47.0000 	   43.1523
    1.9303 	   91.0040 	    2.0000 	   47.0000 	   43.3223
    1.8845 	   91.1690 	    2.0000 	   47.0000 	   43.4873
    2.0066 	   91.3420 	    2.0000 	   47.0000 	   43.6603
    1.7777 	   91.5130 	    2.0000 	   47.0000 	   43.8313
    1.7929 	   91.6850 	    2.0000 	   47.0000 	   44.0033
    1.9608 	   91.8580 	    2.0000 	   47.0000 	   44.1763
    1.8692 	   92.0210 	    2.0000 	   47.0000 	   44.3393
    1.9150 	   92.1800 	    2.0000 	   47.0000 	   44.4974
    1.7319 	   92.3420 	    2.0000 	   47.0000 	   44.6594
    1.9150 	   92.5120 	    2.0000 	   47.0000 	   44.8294
    1.9455 	   92.6720 	    2.0000 	   47.0000 	   44.9894
    1.6556 	   92.8400 	    2.0000 	   47.0000 	   45.1574
    1.9608 	   92.9950 	    2.0000 	   47.0000 	   45.3124
    1.8845 	   93.1500 	    2.0000 	   47.0000 	   45.4674
    2.0218 	   93.3160 	    2.0000 	   47.0000 	   45.6334
    1.9913 	   93.4860 	    2.0000 	   47.0000 	   45.8034
    1.9913 	   93.6590 	    2.0000 	   47.0000 	   45.9764
    1.8387 	   93.8320 	    2.0000 	   47.0000 	   46.1495
    1.8997 	   94.0040 	    2.0000 	   47.0000 	   46.3215
    1.9608 	   94.1730 	    2.0000 	   47.0000 	   46.4895
    1.8235 	   94.3310 	    2.0000 	   47.0000 	   46.6485
    1.9303 	   94.5040 	    2.0000 	   47.0000 	   46.8215
    1.8692 	   94.6720 	    2.0000 	   47.0000 	   46.9895
    1.8540 	   94.8300 	    2.0000 	   47.0000 	   47.1475
    2.0218 	   94.9970 	    2.0000 	   47.0000 	   47.3145
    1.7777 	   95.1530 	    2.0000 	   47.0000 	   47.4705
    1.7472 	   95.3190 	    2.0000 	   47.0000 	   47.6365
    1.4878 	   95.4920 	    2.0000 	   47.0000 	   47.8095
    1.5488 	   95.6570 	    2.0000 	   47.0000 	   47.9746
    1.5946 	   95.8270 	    2.0000 	   47.0000 	   48.1446
    1.5335 	   96.0010 	    2.0000 	   47.0000 	   48.3186
    1.5488 	   96.1790 	    2.0000 	   47.0000 	   48.4966
    1.6251 	   96.3420 	    2.0000 	   47.0000 	   48.6596
    1.6098 	   96.4990 	    2.0000 	   47.0000 	   48.8166
    1.4725 	   96.6560 	    2.0000 	   47.0000 	   48.9736
    1.3962 	   96.8230 	    2.0000 	   47.0000 	   49.1406
    1.5030 	   96.9800 	    2.0000 	   47.0000 	   49.2976
    1.4115 	   97.1370 	    2.0000 	   47.0000 	   49.4546
    1.3962 	   97.3120 	    2.0000 	   47.0000 	   49.6287
    1.3046 	   97.4840 	    2.0000 	   47.0000 	   49.8017
    1.3199 	   97.6590 	    2.0000 	   47.0000 	   49.9767
    1.3809 	   97.8330 	    2.0000 	   47.0000 	   50.1507
    1.2741 	   97.9920 	    2.0000 	   47.0000 	   50.3097
    1.2284 	   98.1540 	    2.0000 	   47.0000 	   50.4717
    1.3504 	   98.3120 	    2.0000 	   47.0000 	   50.6297
    1.3046 	   98.4730 	    2.0000 	   47.0000 	   50.7907
    1.3199 	   98.6380 	    2.0000 	   47.0000 	   50.9557
    1.3199 	   98.7960 	    2.0000 	   47.0000 	   51.1137
    1.2894 	   98.9520 	    2.0000 	   47.0000 	   51.2697
    1.1368 	   99.1120 	    2.0000 	   47.0000 	   51.4298
    1.2589 	   99.2810 	    2.0000 	   47.0000 	   51.5988
    1.1978 	   99.4460 	    2.0000 	   47.0000 	   51.7638
    1.3046 	   99.6120 	    2.0000 	   47.0000 	   51.9298
    1.1063 	   99.7730 	    2.0000 	   47.0000 	   52.0908
    1.2131 	   99.9290 	    2.0000 	   47.0000 	   52.2468
    1.1673 	  100.1050 	    2.0000 	   47.0000 	   52.4228
    1.2589 	  100.2830 	    2.0000 	   47.0000 	   52.6008
    0.9842 	  100.4580 	    2.0000 	   47.0000 	   52.7758
    1.1063 	  100.6360 	    2.0000 	   47.0000 	   52.9538
    1.0758 	  100.8080 	    2.0000 	   47.0000 	   53.1259
    1.0910 	  100.9820 	    2.0000 	   47.0000 	   53.2999
    1.0452 	  101.1610 	    2.0000 	   47.0000 	   53.4789
    1.1368 	  101.3410 	    2.0000 	   47.0000 	   53.6589
    0.9537 	  101.5090 	    2.0000 	   47.0000 	   53.8269
    0.9842 	  101.6660 	    2.0000 	   47.0000 	   53.9839
    0.9995 	  101.8250 	    2.0000 	   47.0000 	   54.1429
    1.1826 	  101.9850 	    2.0000 	   47.0000 	   54.3029
    0.9384 	  102.1470 	    2.0000 	   47.0000 	   54.4649
    1.1063 	  102.3240 	    2.0000 	   47.0000 	   54.6419
    0.9995 	  102.5050 	    2.0000 	   47.0000 	   54.8229
    0.9537 	  102.6810 	    2.0000 	   47.0000 	   54.9990
    1.0452 	  102.8410 	    2.0000 	   47.0000 	   55.1590
    0.9537 	  103.0000 	    2.0000 	   47.0000 	   55.3180
    0.9232 	  103.1580 	    2.0000 	   47.0000 	   55.4760
    0.7706 	  103.3160 	    2.0000 	   47.0000 	   55.6330
    0.8774 	  103.4750 	    2.0000 	   47.0000 	   55.7930
    0.9384 	  103.6340 	    2.0000 	   47.0000 	   55.9520
    0.9232 	  103.7930 	    2.0000 	   47.0000 	   56.1110
    0.9232 	  103.9520 	    2.0000 	   47.0000 	   56.2700
    0.9384 	  104.1110 	    2.0000 	   47.0000 	   56.4280
    0.9537 	  104.2720 	    2.0000 	   47.0000 	   56.5900
    1.0758 	  104.4310 	    2.0000 	   47.0000 	   56.7491
    0.8927 	  104.6020 	    2.0000 	   47.0000 	   56.9201
    0.8469 	  104.7800 	    2.0000 	   47.0000 	   57.0981
    0.9384 	  104.9490 	    2.0000 	   47.0000 	   57.2671
    0.8774 	  105.1310 	    2.0000 	   47.0000 	   57.4491
    0.9079 	  105.3040 	    2.0000 	   47.0000 	   57.6221
    0.8774 	  105.4640 	    2.0000 	   47.0000 	   57.7821
    0.8927 	  105.6260 	    2.0000 	   47.0000 	   57.9441
    0.5722 	  105.7960 	    2.0000 	   47.0000 	   58.1141
    0.9689 	  105.9560 	    2.0000 	   47.0000 	   58.2741
    0.8164 	  106.1260 	    2.0000 	   47.0000 	   58.4442
    0.8621 	  106.3030 	    2.0000 	   47.0000 	   58.6212
    0.8774 	  106.4810 	    2.0000 	   47.0000 	   58.7992
    0.8011 	  106.6550 	    2.0000 	   47.0000 	   58.9732
    0.7401 	  106.8140 	    2.0000 	   47.0000 	   59.1322
    0.7553 	  106.9850 	    2.0000 	   47.0000 	   59.3032
    0.7553 	  107.1510 	    2.0000 	   47.0000 	   59.4692
    0.7553 	  107.3170 	    2.0000 	   47.0000 	   59.6352
    0.8927 	  107.4780 	    2.0000 	   47.0000 	   59.7962
    0.7553 	  107.6460 	    2.0000 	   47.0000 	   59.9642
    0.7553 	  107.8080 	    2.0000 	   48.0000 	    0.1263
    0.7095 	  107.9710 	    2.0000 	   48.0000 	    0.2893
    0.7858 	  108.1300 	    2.0000 	   48.0000 	    0.4483
    0.9232 	  108.2910 	    2.0000 	   48.0000 	    0.6093
    0.7401 	  108.4530 	    2.0000 	   48.0000 	    0.7713
    0.6943 	  108.6180 	    2.0000 	   48.0000 	    0.9363
    0.6790 	  108.7780 	    2.0000 	   48.0000 	    1.0963
    0.8469 	  108.9490 	    2.0000 	   48.0000 	    1.2673
    0.6943 	  109.1100 	    2.0000 	   48.0000 	    1.4283
    0.6790 	  109.2770 	    2.0000 	   48.0000 	    1.5953
    0.4959 	  109.4390 	    2.0000 	   48.0000 	    1.7573
    0.8316 	  109.6010 	    2.0000 	   48.0000 	    1.9184
    0.7248 	  109.7640 	    2.0000 	   48.0000 	    2.0814
    0.8316 	  109.9260 	    2.0000 	   48.0000 	    2.2434
    0.7706 	  110.0950 	    2.0000 	   48.0000 	    2.4124
    0.7706 	  110.2730 	    2.0000 	   48.0000 	    2.5904
    0.6485 	  110.4570 	    2.0000 	   48.0000 	    2.7744
    0.7401 	  110.6360 	    2.0000 	   48.0000 	    2.9534
    0.8469 	  110.8210 	    2.0000 	   48.0000 	    3.1384
    0.5875 	  111.0010 	    2.0000 	   48.0000 	    3.3184
    0.6180 	  111.1640 	    2.0000 	   48.0000 	    3.4814
    0.6332 	  111.3400 	    2.0000 	   48.0000 	    3.6575
    0.7858 	  111.5160 	    2.0000 	   48.0000 	    3.8335
    0.6180 	  111.6860 	    2.0000 	   48.0000 	    4.0035
    0.6943 	  111.8520 	    2.0000 	   48.0000 	    4.1695
    0.5417 	  112.0200 	    2.0000 	   48.0000 	    4.3375
    0.6332 	  112.1850 	    2.0000 	   48.0000 	    4.5025
    0.6332 	  112.3470 	    2.0000 	   48.0000 	    4.6645
    0.7553 	  112.5100 	    2.0000 	   48.0000 	    4.8275
    0.6638 	  112.6750 	    2.0000 	   48.0000 	    4.9925
    0.6332 	  112.8390 	    2.0000 	   48.0000 	    5.1565
    0.6485 	  113.0020 	    2.0000 	   48.0000 	    5.3195
    0.6485 	  113.1660 	    2.0000 	   48.0000 	    5.4836
    0.5875 	  113.3410 	    2.0000 	   48.0000 	    5.6586
    0.4349 	  113.5140 	    2.0000 	   48.0000 	    5.8316
    0.6485 	  113.6930 	    2.0000 	   48.0000 	    6.0106
    0.6027 	  113.8760 	    2.0000 	   48.0000 	    6.1936
    0.6790 	  114.0550 	    2.0000 	   48.0000 	    6.3726
    0.5722 	  114.2360 	    2.0000 	   48.0000 	    6.5536
    0.5112 	  114.4180 	    2.0000 	   48.0000 	    6.7356
    0.7401 	  114.5990 	    2.0000 	   48.0000 	    6.9166
    0.6180 	  114.7720 	    2.0000 	   48.0000 	    7.0896
    0.7401 	  114.9390 	    2.0000 	   48.0000 	    7.2567
    0.7095 	  115.1150 	    2.0000 	   48.0000 	    7.4327
    0.6790 	  115.2830 	    2.0000 	   48.0000 	    7.6007
    0.7248 	  115.4550 	    2.0000 	   48.0000 	    7.7727
    0.6790 	  115.6410 	    2.0000 	   48.0000 	    7.9587
    0.5722 	  115.8260 	    2.0000 	   48.0000 	    8.1437
    0.6485 	  116.0090 	    2.0000 	   48.0000 	    8.3267
    0.6943 	  116.1930 	    2.0000 	   48.0000 	    8.5107
    0.6790 	  116.3760 	    2.0000 	   48.0000 	    8.6937
    0.7553 	  116.5550 	    2.0000 	   48.0000 	    8.8728
    0.6027 	  116.7290 	    2.0000 	   48.0000 	    9.0468
    0.4959 	  116.8120 	    2.0000 	   48.0000 	    9.1298