File: instron/independence/relaxation/bad_l15w3_40_30_pre10/b_l15w3_40_30_stop1min_pre10_force.txt
Thayer School of Engineering        Instron 4442 Mechanical Testing System
7/5/2018 1:45:55 AM

  Force (N)	Extension (mm)	Not Used	Not Used	Not Used	     Hour	    Minute	    Second
    0.5264 	    0.5095 	    1.0000 	   46.0000 	   31.2023
    0.6027 	    0.6280 	    1.0000 	   46.0000 	   31.4393
    0.6790 	    0.7660 	    1.0000 	   46.0000 	   31.7153
    0.5112 	    0.9005 	    1.0000 	   46.0000 	   31.9843
    0.5570 	    1.0495 	    1.0000 	   46.0000 	   32.2823
    0.4959 	    1.2075 	    1.0000 	   46.0000 	   32.5983
    0.5875 	    1.3645 	    1.0000 	   46.0000 	   32.9124
    0.5722 	    1.5055 	    1.0000 	   46.0000 	   33.1944
    0.6180 	    1.6175 	    1.0000 	   46.0000 	   33.4184
    0.5722 	    1.7375 	    1.0000 	   46.0000 	   33.6584
    0.3433 	    1.8280 	    1.0000 	   46.0000 	   33.8394
    0.5875 	    1.9390 	    1.0000 	   46.0000 	   34.0614
    0.6485 	    2.0365 	    1.0000 	   46.0000 	   34.2564
    0.5417 	    2.1310 	    1.0000 	   46.0000 	   34.4454
    0.6027 	    2.2275 	    1.0000 	   46.0000 	   34.6385
    0.7706 	    2.3250 	    1.0000 	   46.0000 	   34.8335
    0.6485 	    2.4190 	    1.0000 	   46.0000 	   35.0215
    0.7095 	    2.5155 	    1.0000 	   46.0000 	   35.2145
    0.6332 	    2.6135 	    1.0000 	   46.0000 	   35.4105
    0.6027 	    2.7095 	    1.0000 	   46.0000 	   35.6025
    0.7553 	    2.8030 	    1.0000 	   46.0000 	   35.7895
    0.7095 	    2.9075 	    1.0000 	   46.0000 	   35.9985
    0.7553 	    2.9970 	    1.0000 	   46.0000 	   36.1775
    0.4654 	    3.0895 	    1.0000 	   46.0000 	   36.3626
    0.7095 	    3.1790 	    1.0000 	   46.0000 	   36.5416
    0.5722 	    3.2735 	    1.0000 	   46.0000 	   36.7306
    0.6638 	    3.3670 	    1.0000 	   46.0000 	   36.9176
    0.8011 	    3.4585 	    1.0000 	   46.0000 	   37.1006
    0.5875 	    3.5540 	    1.0000 	   46.0000 	   37.2916
    0.8164 	    3.6500 	    1.0000 	   46.0000 	   37.4836
    0.6332 	    3.7440 	    1.0000 	   46.0000 	   37.6716
    0.6638 	    3.8370 	    1.0000 	   46.0000 	   37.8576
    0.5264 	    3.9290 	    1.0000 	   46.0000 	   38.0416
    0.5264 	    4.0235 	    1.0000 	   46.0000 	   38.2307
    0.7248 	    4.1190 	    1.0000 	   46.0000 	   38.4217
    0.6790 	    4.2120 	    1.0000 	   46.0000 	   38.6077
    0.5722 	    4.3065 	    1.0000 	   46.0000 	   38.7967
    0.5722 	    4.4010 	    1.0000 	   46.0000 	   38.9857
    0.6180 	    4.4950 	    1.0000 	   46.0000 	   39.1737
    0.5570 	    4.5885 	    1.0000 	   46.0000 	   39.3607
    0.3586 	    4.6870 	    1.0000 	   46.0000 	   39.5577
    0.7248 	    4.7845 	    1.0000 	   46.0000 	   39.7527
    0.3281 	    4.8805 	    1.0000 	   46.0000 	   39.9448
    0.7401 	    4.9765 	    1.0000 	   46.0000 	   40.1368
    0.6790 	    5.0715 	    1.0000 	   46.0000 	   40.3268
    0.8011 	    5.1700 	    1.0000 	   46.0000 	   40.5238
    0.8469 	    5.2705 	    1.0000 	   46.0000 	   40.7248
    0.8011 	    5.3680 	    1.0000 	   46.0000 	   40.9198
    0.8621 	    5.4640 	    1.0000 	   46.0000 	   41.1118
    0.7706 	    5.5615 	    1.0000 	   46.0000 	   41.3068
    0.6332 	    5.6585 	    1.0000 	   46.0000 	   41.5008
    0.7095 	    5.7565 	    1.0000 	   46.0000 	   41.6969
    0.6943 	    5.8550 	    1.0000 	   46.0000 	   41.8939
    0.6332 	    5.9535 	    1.0000 	   46.0000 	   42.0909
    0.8316 	    6.0500 	    1.0000 	   46.0000 	   42.2839
    0.6943 	    6.1485 	    1.0000 	   46.0000 	   42.4799
    0.6332 	    6.2445 	    1.0000 	   46.0000 	   42.6719
    0.7553 	    6.3410 	    1.0000 	   46.0000 	   42.8649
    0.6180 	    6.4380 	    1.0000 	   46.0000 	   43.0589
    0.6790 	    6.5315 	    1.0000 	   46.0000 	   43.2459
    0.6790 	    6.6300 	    1.0000 	   46.0000 	   43.4430
    0.7248 	    6.7310 	    1.0000 	   46.0000 	   43.6450
    0.7553 	    6.8265 	    1.0000 	   46.0000 	   43.8360
    0.6943 	    6.9210 	    1.0000 	   46.0000 	   44.0250
    0.6332 	    7.0150 	    1.0000 	   46.0000 	   44.2130
    0.7706 	    7.1150 	    1.0000 	   46.0000 	   44.4130
    0.6943 	    7.2150 	    1.0000 	   46.0000 	   44.6130
    0.7706 	    7.3220 	    1.0000 	   46.0000 	   44.8270
    0.7706 	    7.4200 	    1.0000 	   46.0000 	   45.0230
    0.7858 	    7.5200 	    1.0000 	   46.0000 	   45.2231
    0.7095 	    7.6190 	    1.0000 	   46.0000 	   45.4211
    0.7401 	    7.7215 	    1.0000 	   46.0000 	   45.6261
    0.7095 	    7.8185 	    1.0000 	   46.0000 	   45.8201
    0.8164 	    7.9185 	    1.0000 	   46.0000 	   46.0201
    0.8011 	    8.0170 	    1.0000 	   46.0000 	   46.2171
    0.7706 	    8.1175 	    1.0000 	   46.0000 	   46.4181
    0.7401 	    8.2175 	    1.0000 	   46.0000 	   46.6181
    0.7553 	    8.3215 	    1.0000 	   46.0000 	   46.8261
    0.7095 	    8.4230 	    1.0000 	   46.0000 	   47.0292
    0.7858 	    8.5250 	    1.0000 	   46.0000 	   47.2332
    0.6790 	    8.6250 	    1.0000 	   46.0000 	   47.4332
    0.7095 	    8.7250 	    1.0000 	   46.0000 	   47.6332
    0.7858 	    8.8265 	    1.0000 	   46.0000 	   47.8362
    0.7553 	    8.9260 	    1.0000 	   46.0000 	   48.0352
    0.8011 	    9.0260 	    1.0000 	   46.0000 	   48.2352
    0.7858 	    9.1290 	    1.0000 	   46.0000 	   48.4412
    0.8927 	    9.2370 	    1.0000 	   46.0000 	   48.6573
    0.8316 	    9.3420 	    1.0000 	   46.0000 	   48.8673
    0.8927 	    9.4435 	    1.0000 	   46.0000 	   49.0703
    0.7401 	    9.5430 	    1.0000 	   46.0000 	   49.2693
    0.7553 	    9.6445 	    1.0000 	   46.0000 	   49.4723
    0.8164 	    9.7465 	    1.0000 	   46.0000 	   49.6763
    0.8164 	    9.8510 	    1.0000 	   46.0000 	   49.8853
    0.7858 	    9.9520 	    1.0000 	   46.0000 	   50.0873
    0.8621 	   10.0550 	    1.0000 	   46.0000 	   50.2934
    0.8927 	   10.1570 	    1.0000 	   46.0000 	   50.4974
    0.7095 	   10.2565 	    1.0000 	   46.0000 	   50.6964
    0.8316 	   10.3520 	    1.0000 	   46.0000 	   50.8874
    0.8316 	   10.4545 	    1.0000 	   46.0000 	   51.0924
    0.8469 	   10.5590 	    1.0000 	   46.0000 	   51.3004
    0.7401 	   10.6575 	    1.0000 	   46.0000 	   51.4984
    0.8774 	   10.7505 	    1.0000 	   46.0000 	   51.6844
    0.7858 	   10.8470 	    1.0000 	   46.0000 	   51.8774
    0.8927 	   10.9385 	    1.0000 	   46.0000 	   52.0605
    0.8927 	   11.0325 	    1.0000 	   46.0000 	   52.2485
    0.8316 	   11.1260 	    1.0000 	   46.0000 	   52.4355
    0.7858 	   11.2175 	    1.0000 	   46.0000 	   52.6185
    0.9232 	   11.3195 	    1.0000 	   46.0000 	   52.8225
    0.8621 	   11.4110 	    1.0000 	   46.0000 	   53.0055
    0.8316 	   11.5045 	    1.0000 	   46.0000 	   53.1925
    0.8774 	   11.5965 	    1.0000 	   46.0000 	   53.3765
    0.9537 	   11.6940 	    1.0000 	   46.0000 	   53.5715
    0.9232 	   11.7985 	    1.0000 	   46.0000 	   53.7805
    0.9995 	   11.9025 	    1.0000 	   46.0000 	   53.9886
    0.9232 	   12.0025 	    1.0000 	   46.0000 	   54.1886
    0.8774 	   12.1075 	    1.0000 	   46.0000 	   54.3986
    0.9689 	   12.2120 	    1.0000 	   46.0000 	   54.6076
    0.9384 	   12.3280 	    1.0000 	   46.0000 	   54.8396
    0.9079 	   12.4300 	    1.0000 	   46.0000 	   55.0436
    0.9689 	   12.5235 	    1.0000 	   46.0000 	   55.2306
    0.8621 	   12.6290 	    1.0000 	   46.0000 	   55.4416
    0.8927 	   12.7370 	    1.0000 	   46.0000 	   55.6577
    0.8927 	   12.8460 	    1.0000 	   46.0000 	   55.8747
    0.9995 	   12.9495 	    1.0000 	   46.0000 	   56.0827
    1.0758 	   13.0455 	    1.0000 	   46.0000 	   56.2747
    0.9842 	   13.1400 	    1.0000 	   46.0000 	   56.4637
    1.0910 	   13.2375 	    1.0000 	   46.0000 	   56.6587
    1.1368 	   13.3435 	    1.0000 	   46.0000 	   56.8707
    0.9842 	   13.4465 	    1.0000 	   46.0000 	   57.0767
    0.8164 	   13.5465 	    1.0000 	   46.0000 	   57.2767
    0.9842 	   13.6460 	    1.0000 	   46.0000 	   57.4758
    1.0758 	   13.7465 	    1.0000 	   46.0000 	   57.6768
    0.9842 	   13.8425 	    1.0000 	   46.0000 	   57.8688
    0.9995 	   13.9355 	    1.0000 	   46.0000 	   58.0548
    1.0147 	   14.0290 	    1.0000 	   46.0000 	   58.2418
    1.0147 	   14.1250 	    1.0000 	   46.0000 	   58.4338
    1.0605 	   14.2220 	    1.0000 	   46.0000 	   58.6278
    0.9689 	   14.3245 	    1.0000 	   46.0000 	   58.8328
    1.0758 	   14.4275 	    1.0000 	   46.0000 	   59.0388
    1.0758 	   14.5385 	    1.0000 	   46.0000 	   59.2609
    0.7858 	   14.6465 	    1.0000 	   46.0000 	   59.4769
    1.0300 	   14.7430 	    1.0000 	   46.0000 	   59.6699
    1.0300 	   14.8410 	    1.0000 	   46.0000 	   59.8659
    1.0452 	   14.9410 	    1.0000 	   47.0000 	    0.0649
    1.0300 	   15.0495 	    1.0000 	   47.0000 	    0.2819
    1.0452 	   15.1565 	    1.0000 	   47.0000 	    0.4959
    1.0147 	   15.2615 	    1.0000 	   47.0000 	    0.7059
    1.0605 	   15.3665 	    1.0000 	   47.0000 	    0.9160
    1.0300 	   15.4745 	    1.0000 	   47.0000 	    1.1320
    0.9689 	   15.5845 	    1.0000 	   47.0000 	    1.3520
    1.0300 	   15.6920 	    1.0000 	   47.0000 	    1.5670
    1.0452 	   15.8000 	    1.0000 	   47.0000 	    1.7830
    1.0910 	   15.9060 	    1.0000 	   47.0000 	    1.9950
    0.8164 	   16.0135 	    1.0000 	   47.0000 	    2.2100
    1.0147 	   16.1195 	    1.0000 	   47.0000 	    2.4220
    1.0758 	   16.2285 	    1.0000 	   47.0000 	    2.6401
    1.0910 	   16.3385 	    1.0000 	   47.0000 	    2.8601
    1.0452 	   16.4465 	    1.0000 	   47.0000 	    3.0761
    1.1826 	   16.5530 	    1.0000 	   47.0000 	    3.2891
    1.3657 	   16.6475 	    1.0000 	   47.0000 	    3.4781
    1.0910 	   16.7530 	    1.0000 	   47.0000 	    3.6891
    1.0758 	   16.8615 	    1.0000 	   47.0000 	    3.9061
    1.0910 	   16.9710 	    1.0000 	   47.0000 	    4.1251
    1.1215 	   17.0805 	    1.0000 	   47.0000 	    4.3442
    1.0147 	   17.1895 	    1.0000 	   47.0000 	    4.5622
    1.0452 	   17.2980 	    1.0000 	   47.0000 	    4.7792
    1.1215 	   17.4030 	    1.0000 	   47.0000 	    4.9892
    1.2131 	   17.5075 	    1.0000 	   47.0000 	    5.1982
    1.1215 	   17.6170 	    1.0000 	   47.0000 	    5.4172
    1.1521 	   17.7260 	    1.0000 	   47.0000 	    5.6352
    1.1521 	   17.8365 	    1.0000 	   47.0000 	    5.8562
    1.2589 	   17.9455 	    1.0000 	   47.0000 	    6.0743
    1.1368 	   18.0565 	    1.0000 	   47.0000 	    6.2963
    1.2131 	   18.1645 	    1.0000 	   47.0000 	    6.5123
    1.2589 	   18.2750 	    1.0000 	   47.0000 	    6.7333
    1.1673 	   18.3830 	    1.0000 	   47.0000 	    6.9493
    1.1673 	   18.4915 	    1.0000 	   47.0000 	    7.1663
    1.2131 	   18.6010 	    1.0000 	   47.0000 	    7.3853
    1.1063 	   18.7130 	    1.0000 	   47.0000 	    7.6093
    1.2284 	   18.8215 	    1.0000 	   47.0000 	    7.8264
    1.1826 	   18.9330 	    1.0000 	   47.0000 	    8.0494
    1.2284 	   19.0455 	    1.0000 	   47.0000 	    8.2744
    1.3046 	   19.1565 	    1.0000 	   47.0000 	    8.4964
    1.3199 	   19.2740 	    1.0000 	   47.0000 	    8.7314
    1.2436 	   19.3860 	    1.0000 	   47.0000 	    8.9554
    1.2436 	   19.4965 	    1.0000 	   47.0000 	    9.1764
    1.2741 	   19.6070 	    1.0000 	   47.0000 	    9.3974
    1.3809 	   19.7185 	    1.0000 	   47.0000 	    9.6205
    1.2741 	   19.8285 	    1.0000 	   47.0000 	    9.8405
    1.3046 	   19.9400 	    1.0000 	   47.0000 	   10.0635
    1.1521 	   20.0530 	    1.0000 	   47.0000 	   10.2895
    1.3199 	   20.1655 	    1.0000 	   47.0000 	   10.5145
    1.2284 	   20.2790 	    1.0000 	   47.0000 	   10.7415
    1.0147 	   20.3890 	    1.0000 	   47.0000 	   10.9615
    1.3809 	   20.5000 	    1.0000 	   47.0000 	   11.1835
    1.2436 	   20.6080 	    1.0000 	   47.0000 	   11.3996
    1.4420 	   20.7070 	    1.0000 	   47.0000 	   11.5976
    1.3657 	   20.8090 	    1.0000 	   47.0000 	   11.8016
    1.2436 	   20.9180 	    1.0000 	   47.0000 	   12.0196
    1.1826 	   21.0305 	    1.0000 	   47.0000 	   12.2446
    1.1521 	   21.1445 	    1.0000 	   47.0000 	   12.4726
    1.2284 	   21.2580 	    1.0000 	   47.0000 	   12.6996
    0.9232 	   21.3715 	    1.0000 	   47.0000 	   12.9266
    1.2131 	   21.4835 	    1.0000 	   47.0000 	   13.1507
    1.2284 	   21.5920 	    1.0000 	   47.0000 	   13.3677
    1.3352 	   21.6945 	    1.0000 	   47.0000 	   13.5727
    1.2131 	   21.8015 	    1.0000 	   47.0000 	   13.7867
    1.2589 	   21.9035 	    1.0000 	   47.0000 	   13.9907
    1.1521 	   22.0090 	    1.0000 	   47.0000 	   14.2017
    1.2131 	   22.1235 	    1.0000 	   47.0000 	   14.4307
    1.2589 	   22.2375 	    1.0000 	   47.0000 	   14.6587
    1.2589 	   22.3400 	    1.0000 	   47.0000 	   14.8638
    1.1673 	   22.4415 	    1.0000 	   47.0000 	   15.0668
    1.3046 	   22.5450 	    1.0000 	   47.0000 	   15.2738
    1.2894 	   22.6465 	    1.0000 	   47.0000 	   15.4768
    1.2131 	   22.7550 	    1.0000 	   47.0000 	   15.6938
    1.2284 	   22.8690 	    1.0000 	   47.0000 	   15.9218
    1.2436 	   22.9825 	    1.0000 	   47.0000 	   16.1488
    1.3504 	   23.0995 	    1.0000 	   47.0000 	   16.3828
    1.2436 	   23.2105 	    1.0000 	   47.0000 	   16.6049
    1.2589 	   23.3130 	    1.0000 	   47.0000 	   16.8099
    1.1978 	   23.4175 	    1.0000 	   47.0000 	   17.0189
    1.2589 	   23.5295 	    1.0000 	   47.0000 	   17.2429
    1.4725 	   23.6455 	    1.0000 	   47.0000 	   17.4739
    1.1521 	   23.7495 	    1.0000 	   47.0000 	   17.6819
    1.3046 	   23.8600 	    1.0000 	   47.0000 	   17.9029
    1.2131 	   23.9710 	    1.0000 	   47.0000 	   18.1249
    1.1978 	   24.0810 	    1.0000 	   47.0000 	   18.3450
    1.2436 	   24.1955 	    1.0000 	   47.0000 	   18.5740
    1.2436 	   24.3105 	    1.0000 	   47.0000 	   18.8040
    1.2894 	   24.4145 	    1.0000 	   47.0000 	   19.0120
    1.4115 	   24.5250 	    1.0000 	   47.0000 	   19.2330
    1.3657 	   24.6350 	    1.0000 	   47.0000 	   19.4530
    1.2589 	   24.7405 	    1.0000 	   47.0000 	   19.6640
    1.2741 	   24.8460 	    1.0000 	   47.0000 	   19.8750
    1.1826 	   24.9490 	    1.0000 	   47.0000 	   20.0811
    1.1673 	   25.0565 	    1.0000 	   47.0000 	   20.2961
    1.0910 	   25.1675 	    1.0000 	   47.0000 	   20.5181
    1.1215 	   25.2795 	    1.0000 	   47.0000 	   20.7421
    1.1368 	   25.3950 	    1.0000 	   47.0000 	   20.9731
    1.2741 	   25.5075 	    1.0000 	   47.0000 	   21.1981
    1.2284 	   25.6160 	    1.0000 	   47.0000 	   21.4151
    1.2436 	   25.7220 	    1.0000 	   47.0000 	   21.6271
    1.1673 	   25.8315 	    1.0000 	   47.0000 	   21.8462
    1.2741 	   25.9475 	    1.0000 	   47.0000 	   22.0782
    1.2131 	   26.0645 	    1.0000 	   47.0000 	   22.3122
    0.9232 	   26.1820 	    1.0000 	   47.0000 	   22.5472
    1.1521 	   26.2930 	    1.0000 	   47.0000 	   22.7692
    1.2589 	   26.4015 	    1.0000 	   47.0000 	   22.9862
    1.3046 	   26.5170 	    1.0000 	   47.0000 	   23.2172
    1.2894 	   26.6375 	    1.0000 	   47.0000 	   23.4582
    1.2894 	   26.7555 	    1.0000 	   47.0000 	   23.6943
    1.2894 	   26.8740 	    1.0000 	   47.0000 	   23.9313
    1.1673 	   26.9805 	    1.0000 	   47.0000 	   24.1443
    1.2131 	   27.1005 	    1.0000 	   47.0000 	   24.3843
    1.2589 	   27.2225 	    1.0000 	   47.0000 	   24.6283
    1.1978 	   27.3325 	    1.0000 	   47.0000 	   24.8483
    1.2284 	   27.4435 	    1.0000 	   47.0000 	   25.0703
    1.3046 	   27.5615 	    1.0000 	   47.0000 	   25.3064
    1.1521 	   27.6780 	    1.0000 	   47.0000 	   25.5394
    1.3809 	   27.7960 	    1.0000 	   47.0000 	   25.7754
    1.3657 	   27.9170 	    1.0000 	   47.0000 	   26.0174
    1.3352 	   28.0370 	    1.0000 	   47.0000 	   26.2574
    1.1978 	   28.1595 	    1.0000 	   47.0000 	   26.5024
    1.2436 	   28.2785 	    1.0000 	   47.0000 	   26.7394
    1.1673 	   28.3975 	    1.0000 	   47.0000 	   26.9784
    1.1215 	   28.5190 	    1.0000 	   47.0000 	   27.2215
    1.1978 	   28.6385 	    1.0000 	   47.0000 	   27.4605
    1.3046 	   28.7580 	    1.0000 	   47.0000 	   27.6995
    1.1673 	   28.8780 	    1.0000 	   47.0000 	   27.9395
    1.2131 	   28.9945 	    1.0000 	   47.0000 	   28.1725
    1.3046 	   29.1065 	    1.0000 	   47.0000 	   28.3965
    1.2284 	   29.2150 	    1.0000 	   47.0000 	   28.6135
    1.2589 	   29.3330 	    1.0000 	   47.0000 	   28.8496
    0.9537 	   29.4535 	    1.0000 	   47.0000 	   29.0906
    1.2741 	   29.5750 	    1.0000 	   47.0000 	   29.3336
    1.2284 	   29.6935 	    1.0000 	   47.0000 	   29.5706
    1.2131 	   29.8125 	    1.0000 	   47.0000 	   29.8086
    1.1673 	   29.9335 	    1.0000 	   47.0000 	   30.0506
    1.0300 	   30.0570 	    1.0000 	   47.0000 	   30.2976
    1.3809 	   30.1785 	    1.0000 	   47.0000 	   30.5407
    1.2131 	   30.2980 	    1.0000 	   47.0000 	   30.7797
    1.1826 	   30.4195 	    1.0000 	   47.0000 	   31.0227
    1.2131 	   30.5415 	    1.0000 	   47.0000 	   31.2667
    1.2741 	   30.6625 	    1.0000 	   47.0000 	   31.5087
    1.1978 	   30.7835 	    1.0000 	   47.0000 	   31.7507
    1.2436 	   30.9045 	    1.0000 	   47.0000 	   31.9927
    1.1978 	   31.0220 	    1.0000 	   47.0000 	   32.2277
    1.1826 	   31.1335 	    1.0000 	   47.0000 	   32.4508
    1.1368 	   31.2590 	    1.0000 	   47.0000 	   32.7018
    1.1826 	   31.3805 	    1.0000 	   47.0000 	   32.9448
    1.3046 	   31.5025 	    1.0000 	   47.0000 	   33.1888
    1.1673 	   31.6215 	    1.0000 	   47.0000 	   33.4268
    1.1063 	   31.7460 	    1.0000 	   47.0000 	   33.6758
    1.1215 	   31.8665 	    1.0000 	   47.0000 	   33.9168
    1.2436 	   31.9900 	    1.0000 	   47.0000 	   34.1639
    1.2284 	   32.1010 	    1.0000 	   47.0000 	   34.3859
    1.2436 	   32.2135 	    1.0000 	   47.0000 	   34.6109
    1.2436 	   32.3325 	    1.0000 	   47.0000 	   34.8489
    1.1826 	   32.4490 	    1.0000 	   47.0000 	   35.0809
    1.3352 	   32.5730 	    1.0000 	   47.0000 	   35.3289
    1.3046 	   32.6975 	    1.0000 	   47.0000 	   35.5779
    1.3199 	   32.8180 	    1.0000 	   47.0000 	   35.8190
    1.2284 	   32.9410 	    1.0000 	   47.0000 	   36.0650
    1.1215 	   33.0640 	    1.0000 	   47.0000 	   36.3110
    1.1978 	   33.1865 	    1.0000 	   47.0000 	   36.5560
    1.2894 	   33.3085 	    1.0000 	   47.0000 	   36.8000
    1.2741 	   33.4315 	    1.0000 	   47.0000 	   37.0460
    1.1826 	   33.5485 	    1.0000 	   47.0000 	   37.2800
    1.3046 	   33.6615 	    1.0000 	   47.0000 	   37.5061
    1.3352 	   33.7735 	    1.0000 	   47.0000 	   37.7301
    1.1215 	   33.8865 	    1.0000 	   47.0000 	   37.9561
    1.2131 	   34.0065 	    1.0000 	   47.0000 	   38.1961
    1.2284 	   34.1330 	    1.0000 	   47.0000 	   38.4491
    1.1521 	   34.2565 	    1.0000 	   47.0000 	   38.6961
    1.1368 	   34.3700 	    1.0000 	   47.0000 	   38.9231
    1.3046 	   34.4940 	    1.0000 	   47.0000 	   39.1711
    1.2131 	   34.6150 	    1.0000 	   47.0000 	   39.4132
    1.1673 	   34.7400 	    1.0000 	   47.0000 	   39.6632
    1.0758 	   34.8630 	    1.0000 	   47.0000 	   39.9092
    0.8774 	   34.9850 	    1.0000 	   47.0000 	   40.1532
    1.1826 	   35.0995 	    1.0000 	   47.0000 	   40.3822
    1.2589 	   35.2150 	    1.0000 	   47.0000 	   40.6132
    1.2284 	   35.3320 	    1.0000 	   47.0000 	   40.8472
    1.2589 	   35.4465 	    1.0000 	   47.0000 	   41.0763
    0.9842 	   35.5690 	    1.0000 	   47.0000 	   41.3213
    1.1673 	   35.6845 	    1.0000 	   47.0000 	   41.5523
    1.3046 	   35.8090 	    1.0000 	   47.0000 	   41.8013
    1.2436 	   35.9320 	    1.0000 	   47.0000 	   42.0473
    1.1673 	   36.0535 	    1.0000 	   47.0000 	   42.2903
    1.3352 	   36.1770 	    1.0000 	   47.0000 	   42.5373
    1.1673 	   36.3020 	    1.0000 	   47.0000 	   42.7873
    1.1521 	   36.4240 	    1.0000 	   47.0000 	   43.0314
    1.2131 	   36.5395 	    1.0000 	   47.0000 	   43.2624
    1.0758 	   36.6525 	    1.0000 	   47.0000 	   43.4884
    1.2894 	   36.7685 	    1.0000 	   47.0000 	   43.7204
    1.2284 	   36.8835 	    1.0000 	   47.0000 	   43.9504
    1.1368 	   36.9995 	    1.0000 	   47.0000 	   44.1824
    1.1215 	   37.1235 	    1.0000 	   47.0000 	   44.4304
    1.1368 	   37.2485 	    1.0000 	   47.0000 	   44.6805
    1.2436 	   37.3730 	    1.0000 	   47.0000 	   44.9295
    1.0300 	   37.4950 	    1.0000 	   47.0000 	   45.1735
    1.1521 	   37.6090 	    1.0000 	   47.0000 	   45.4015
    1.1521 	   37.7255 	    1.0000 	   47.0000 	   45.6345
    1.1521 	   37.8440 	    1.0000 	   47.0000 	   45.8715
    0.8774 	   37.9595 	    1.0000 	   47.0000 	   46.1025
    1.1368 	   38.0770 	    1.0000 	   47.0000 	   46.3376
    1.1826 	   38.1990 	    1.0000 	   47.0000 	   46.5816
    1.2284 	   38.3170 	    1.0000 	   47.0000 	   46.8176
    1.0300 	   38.4370 	    1.0000 	   47.0000 	   47.0576
    1.2131 	   38.5665 	    1.0000 	   47.0000 	   47.3166
    1.2589 	   38.6965 	    1.0000 	   47.0000 	   47.5766
    0.8469 	   38.8235 	    1.0000 	   47.0000 	   47.8306
    1.1368 	   38.9475 	    1.0000 	   47.0000 	   48.0787
    1.2436 	   39.0785 	    1.0000 	   47.0000 	   48.3407
    1.3352 	   39.2025 	    1.0000 	   47.0000 	   48.5887
    1.3352 	   39.3195 	    1.0000 	   47.0000 	   48.8227
    1.2131 	   39.4370 	    1.0000 	   47.0000 	   49.0577
    1.0910 	   39.5605 	    1.0000 	   47.0000 	   49.3047
    1.1978 	   39.6810 	    1.0000 	   47.0000 	   49.5457
    1.2894 	   39.8050 	    1.0000 	   47.0000 	   49.7938
    1.2741 	   39.9345 	    1.0000 	   47.0000 	   50.0528
    1.1063 	   40.0680 	    1.0000 	   47.0000 	   50.3198
    1.3962 	   40.1985 	    1.0000 	   47.0000 	   50.5808
    1.3046 	   40.3285 	    1.0000 	   47.0000 	   50.8408
    1.1673 	   40.4515 	    1.0000 	   47.0000 	   51.0868
    1.1826 	   40.5755 	    1.0000 	   47.0000 	   51.3348
    1.2284 	   40.6965 	    1.0000 	   47.0000 	   51.5769
    1.2131 	   40.8195 	    1.0000 	   47.0000 	   51.8229
    1.2589 	   40.9450 	    1.0000 	   47.0000 	   52.0739
    1.3352 	   41.0735 	    1.0000 	   47.0000 	   52.3309
    1.2436 	   41.1945 	    1.0000 	   47.0000 	   52.5719
    1.1215 	   41.3270 	    1.0000 	   47.0000 	   52.8369
    1.1673 	   41.4470 	    1.0000 	   47.0000 	   53.0769
    1.1978 	   41.5705 	    1.0000 	   47.0000 	   53.3240
    1.2131 	   41.6915 	    1.0000 	   47.0000 	   53.5660
    1.1215 	   41.8120 	    1.0000 	   47.0000 	   53.8070
    1.1826 	   41.9420 	    1.0000 	   47.0000 	   54.0670
    1.1826 	   42.0735 	    1.0000 	   47.0000 	   54.3300
    0.8774 	   42.2040 	    1.0000 	   47.0000 	   54.5910
    1.1826 	   42.3355 	    1.0000 	   47.0000 	   54.8540
    1.2284 	   42.4640 	    1.0000 	   47.0000 	   55.1111
    1.3046 	   42.5920 	    1.0000 	   47.0000 	   55.3671
    1.1521 	   42.7185 	    1.0000 	   47.0000 	   55.6201
    1.3199 	   42.8405 	    1.0000 	   47.0000 	   55.8641
    1.1673 	   42.9615 	    1.0000 	   47.0000 	   56.1061
    1.2436 	   43.0970 	    1.0000 	   47.0000 	   56.3771
    1.2131 	   43.2250 	    1.0000 	   47.0000 	   56.6331
    1.1826 	   43.3575 	    1.0000 	   47.0000 	   56.8982
    1.1673 	   43.4830 	    1.0000 	   47.0000 	   57.1492
    1.1978 	   43.6065 	    1.0000 	   47.0000 	   57.3962
    1.1521 	   43.7385 	    1.0000 	   47.0000 	   57.6602
    1.1673 	   43.8615 	    1.0000 	   47.0000 	   57.9062
    1.1368 	   43.9885 	    1.0000 	   47.0000 	   58.1602
    1.1978 	   44.1105 	    1.0000 	   47.0000 	   58.4042
    1.1215 	   44.2375 	    1.0000 	   47.0000 	   58.6583
    1.2436 	   44.3610 	    1.0000 	   47.0000 	   58.9053
    1.2589 	   44.4865 	    1.0000 	   47.0000 	   59.1563
    1.2131 	   44.6080 	    1.0000 	   47.0000 	   59.3993
    1.1215 	   44.7340 	    1.0000 	   47.0000 	   59.6513
    1.2284 	   44.8555 	    1.0000 	   47.0000 	   59.8943
    1.2894 	   44.9865 	    1.0000 	   48.0000 	    0.1563
    1.2741 	   45.1185 	    1.0000 	   48.0000 	    0.4204
    1.1063 	   45.2450 	    1.0000 	   48.0000 	    0.6734
    1.1521 	   45.3685 	    1.0000 	   48.0000 	    0.9204
    1.1978 	   45.4910 	    1.0000 	   48.0000 	    1.1654
    1.1978 	   45.6245 	    1.0000 	   48.0000 	    1.4324
    1.2741 	   45.7560 	    1.0000 	   48.0000 	    1.6954
    1.2436 	   45.8860 	    1.0000 	   48.0000 	    1.9554
    1.1673 	   46.0135 	    1.0000 	   48.0000 	    2.2105
    1.1063 	   46.1395 	    1.0000 	   48.0000 	    2.4625
    1.1521 	   46.2705 	    1.0000 	   48.0000 	    2.7245
    1.2741 	   46.4040 	    1.0000 	   48.0000 	    2.9915
    1.2741 	   46.5345 	    1.0000 	   48.0000 	    3.2525
    1.1978 	   46.6580 	    1.0000 	   48.0000 	    3.4995
    1.2436 	   46.7940 	    1.0000 	   48.0000 	    3.7716
    1.1521 	   46.9195 	    1.0000 	   48.0000 	    4.0226
    1.3504 	   47.0445 	    1.0000 	   48.0000 	    4.2726
    1.2284 	   47.1720 	    1.0000 	   48.0000 	    4.5276
    1.1978 	   47.3040 	    1.0000 	   48.0000 	    4.7916
    1.1826 	   47.4330 	    1.0000 	   48.0000 	    5.0496
    1.1368 	   47.5570 	    1.0000 	   48.0000 	    5.2976
    1.1521 	   47.6805 	    1.0000 	   48.0000 	    5.5447
    1.2589 	   47.8045 	    1.0000 	   48.0000 	    5.7927
    1.3504 	   47.9395 	    1.0000 	   48.0000 	    6.0627
    1.1521 	   48.0745 	    1.0000 	   48.0000 	    6.3327
    1.1063 	   48.2105 	    1.0000 	   48.0000 	    6.6047
    1.1063 	   48.3525 	    1.0000 	   48.0000 	    6.8887
    1.3657 	   48.4895 	    1.0000 	   48.0000 	    7.1627
    1.1673 	   48.6265 	    1.0000 	   48.0000 	    7.4368
    1.3046 	   48.7610 	    1.0000 	   48.0000 	    7.7058
    1.3352 	   48.8850 	    1.0000 	   48.0000 	    7.9538
    1.0452 	   49.0190 	    1.0000 	   48.0000 	    8.2218
    1.0910 	   49.1480 	    1.0000 	   48.0000 	    8.4798
    1.2894 	   49.2795 	    1.0000 	   48.0000 	    8.7428
    1.1368 	   49.4055 	    1.0000 	   48.0000 	    8.9949
    1.1826 	   49.5405 	    1.0000 	   48.0000 	    9.2649
    1.1826 	   49.6760 	    1.0000 	   48.0000 	    9.5359
    1.1826 	   49.8005 	    1.0000 	   48.0000 	    9.7849
    1.2589 	   49.9315 	    1.0000 	   48.0000 	   10.0459
    1.2131 	   50.0705 	    1.0000 	   48.0000 	   10.3239
    1.1215 	   50.2065 	    1.0000 	   48.0000 	   10.5959
    1.3352 	   50.3425 	    1.0000 	   48.0000 	   10.8680
    1.2436 	   50.4700 	    1.0000 	   48.0000 	   11.1230
    1.1826 	   50.5960 	    1.0000 	   48.0000 	   11.3750
    1.3504 	   50.7345 	    1.0000 	   48.0000 	   11.6520
    1.1063 	   50.8625 	    1.0000 	   48.0000 	   11.9080
    1.1673 	   50.9990 	    1.0000 	   48.0000 	   12.1810
    1.1978 	   51.1380 	    1.0000 	   48.0000 	   12.4590
    1.2131 	   51.2735 	    1.0000 	   48.0000 	   12.7301
    1.0452 	   51.4085 	    1.0000 	   48.0000 	   13.0001
    1.2589 	   51.5355 	    1.0000 	   48.0000 	   13.2541
    1.0605 	   51.6635 	    1.0000 	   48.0000 	   13.5101
    1.2284 	   51.7910 	    1.0000 	   48.0000 	   13.7651
    1.0910 	   51.9220 	    1.0000 	   48.0000 	   14.0271
    1.2284 	   52.0635 	    1.0000 	   48.0000 	   14.3102
    1.0452 	   52.1950 	    1.0000 	   48.0000 	   14.5732
    1.0758 	   52.3285 	    1.0000 	   48.0000 	   14.8402
    1.2131 	   52.4605 	    1.0000 	   48.0000 	   15.1042
    1.1368 	   52.6000 	    1.0000 	   48.0000 	   15.3832
    1.0300 	   52.7380 	    1.0000 	   48.0000 	   15.6592
    1.0147 	   52.8710 	    1.0000 	   48.0000 	   15.9252
    1.0147 	   53.0095 	    1.0000 	   48.0000 	   16.2023
    1.1978 	   53.1430 	    1.0000 	   48.0000 	   16.4693
    0.8621 	   53.2715 	    1.0000 	   48.0000 	   16.7263
    0.9232 	   53.4050 	    1.0000 	   48.0000 	   16.9933
    1.0147 	   53.5320 	    1.0000 	   48.0000 	   17.2473
    0.9842 	   53.6615 	    1.0000 	   48.0000 	   17.5063
    0.8469 	   53.7935 	    1.0000 	   48.0000 	   17.7704
    0.9842 	   53.9240 	    1.0000 	   48.0000 	   18.0314
    1.0605 	   54.0605 	    1.0000 	   48.0000 	   18.3044
    1.0452 	   54.2020 	    1.0000 	   48.0000 	   18.5874
    0.9232 	   54.3430 	    1.0000 	   48.0000 	   18.8694
    0.8621 	   54.4770 	    1.0000 	   48.0000 	   19.1374
    0.9232 	   54.6075 	    1.0000 	   48.0000 	   19.3984
    0.9384 	   54.7425 	    1.0000 	   48.0000 	   19.6685
    1.0452 	   54.8805 	    1.0000 	   48.0000 	   19.9445
    0.9842 	   55.0195 	    1.0000 	   48.0000 	   20.2225
    0.9689 	   55.1605 	    1.0000 	   48.0000 	   20.5045
    1.0910 	   55.2920 	    1.0000 	   48.0000 	   20.7675
    0.9689 	   55.4285 	    1.0000 	   48.0000 	   21.0405
    0.9232 	   55.5590 	    1.0000 	   48.0000 	   21.3016
    0.9079 	   55.6985 	    1.0000 	   48.0000 	   21.5806
    0.9689 	   55.8345 	    1.0000 	   48.0000 	   21.8526
    0.8316 	   55.9740 	    1.0000 	   48.0000 	   22.1316
    0.8774 	   56.1140 	    1.0000 	   48.0000 	   22.4116
    0.8316 	   56.2445 	    1.0000 	   48.0000 	   22.6726
    0.6027 	   56.3735 	    1.0000 	   48.0000 	   22.9306
    0.8774 	   56.5090 	    1.0000 	   48.0000 	   23.2017
    0.9995 	   56.6470 	    1.0000 	   48.0000 	   23.4777
    0.8621 	   56.7915 	    1.0000 	   48.0000 	   23.7667
    0.9232 	   56.9265 	    1.0000 	   48.0000 	   24.0367
    0.9384 	   57.0640 	    1.0000 	   48.0000 	   24.3117
    0.8469 	   57.2095 	    1.0000 	   48.0000 	   24.6027
    0.7858 	   57.3585 	    1.0000 	   48.0000 	   24.9008
    0.8621 	   57.4900 	    1.0000 	   48.0000 	   25.1638
    0.8316 	   57.6230 	    1.0000 	   48.0000 	   25.4298
    0.8774 	   57.7550 	    1.0000 	   48.0000 	   25.6938
    0.8927 	   57.8970 	    1.0000 	   48.0000 	   25.9778
    0.8469 	   58.0340 	    1.0000 	   48.0000 	   26.2518
    0.8011 	   58.1780 	    1.0000 	   48.0000 	   26.5399
    0.4807 	   58.3220 	    1.0000 	   48.0000 	   26.8279
    1.0605 	   58.4630 	    1.0000 	   48.0000 	   27.1099
    1.0300 	   58.5980 	    1.0000 	   48.0000 	   27.3789
    0.8774 	   58.7305 	    1.0000 	   48.0000 	   27.6439
    0.6638 	   58.8695 	    1.0000 	   48.0000 	   27.9219
    0.8621 	   59.0055 	    1.0000 	   48.0000 	   28.1939
    0.8927 	   59.1380 	    1.0000 	   48.0000 	   28.4590
    0.9384 	   59.2755 	    1.0000 	   48.0000 	   28.7340
    0.8927 	   59.4075 	    1.0000 	   48.0000 	   28.9980
    0.8316 	   59.5415 	    1.0000 	   48.0000 	   29.2660
    0.7706 	   59.6765 	    1.0000 	   48.0000 	   29.5360
    0.8927 	   59.8150 	    1.0000 	   48.0000 	   29.8130
    0.8469 	   59.9500 	    1.0000 	   48.0000 	   30.0831
    0.8011 	   60.0845 	    1.0000 	   48.0000 	   30.3521
    0.6180 	   60.2170 	    1.0000 	   48.0000 	   30.6171
    0.6790 	   60.3530 	    1.0000 	   48.0000 	   30.8891
    0.6790 	   60.4990 	    1.0000 	   48.0000 	   31.1811
    0.7706 	   60.6375 	    1.0000 	   48.0000 	   31.4581
    0.6485 	   60.7725 	    1.0000 	   48.0000 	   31.7281
    0.8164 	   60.9145 	    1.0000 	   48.0000 	   32.0122
    0.7248 	   61.0500 	    1.0000 	   48.0000 	   32.2832
    0.7401 	   61.1830 	    1.0000 	   48.0000 	   32.5492
    0.7858 	   61.3240 	    1.0000 	   48.0000 	   32.8312
    0.7858 	   61.4575 	    1.0000 	   48.0000 	   33.0982
    0.8011 	   61.5930 	    1.0000 	   48.0000 	   33.3692
    0.7706 	   61.7285 	    1.0000 	   48.0000 	   33.6403
    0.8927 	   61.8730 	    1.0000 	   48.0000 	   33.9293
    0.9842 	   62.0150 	    1.0000 	   48.0000 	   34.2133
    0.8164 	   62.1535 	    1.0000 	   48.0000 	   34.4903
    0.7095 	   62.2905 	    1.0000 	   48.0000 	   34.7643
    0.7706 	   62.4280 	    1.0000 	   48.0000 	   35.0393
    0.6638 	   62.5695 	    1.0000 	   48.0000 	   35.3224
    0.7248 	   62.7045 	    1.0000 	   48.0000 	   35.5924
    0.4349 	   62.8390 	    1.0000 	   48.0000 	   35.8614
    0.8774 	   62.9745 	    1.0000 	   48.0000 	   36.1324
    0.7095 	   63.1100 	    1.0000 	   48.0000 	   36.4034
    0.7706 	   63.2470 	    1.0000 	   48.0000 	   36.6774
    0.8164 	   63.3915 	    1.0000 	   48.0000 	   36.9664
    0.7553 	   63.5300 	    1.0000 	   48.0000 	   37.2435
    0.6332 	   63.6745 	    1.0000 	   48.0000 	   37.5325
    0.6180 	   63.8100 	    1.0000 	   48.0000 	   37.8035
    0.5875 	   63.9485 	    1.0000 	   48.0000 	   38.0805
    0.8316 	   64.0930 	    1.0000 	   48.0000 	   38.3695
    0.7706 	   64.2355 	    1.0000 	   48.0000 	   38.6545
    0.4959 	   64.3805 	    1.0000 	   48.0000 	   38.9446
    0.8774 	   64.5255 	    1.0000 	   48.0000 	   39.2346
    0.3891 	   64.6645 	    1.0000 	   48.0000 	   39.5126
    0.7553 	   64.8090 	    1.0000 	   48.0000 	   39.8016
    0.7401 	   64.9470 	    1.0000 	   48.0000 	   40.0776
    0.7401 	   65.0860 	    1.0000 	   48.0000 	   40.3556
    0.8164 	   65.2250 	    1.0000 	   48.0000 	   40.6337
    0.6027 	   65.3630 	    1.0000 	   48.0000 	   40.9097
    0.7401 	   65.5050 	    1.0000 	   48.0000 	   41.1937
    0.6332 	   65.6455 	    1.0000 	   48.0000 	   41.4747
    0.6790 	   65.7875 	    1.0000 	   48.0000 	   41.7587
    0.8316 	   65.9310 	    1.0000 	   48.0000 	   42.0457
    0.7858 	   66.0805 	    1.0000 	   48.0000 	   42.3448
    0.7095 	   66.2285 	    1.0000 	   48.0000 	   42.6408
    0.9384 	   66.3705 	    1.0000 	   48.0000 	   42.9248
    0.6790 	   66.5140 	    1.0000 	   48.0000 	   43.2118
    0.6027 	   66.6585 	    1.0000 	   48.0000 	   43.5008
    0.6790 	   66.8080 	    1.0000 	   48.0000 	   43.7998
    0.8164 	   66.9525 	    1.0000 	   48.0000 	   44.0889
    0.7401 	   67.0995 	    1.0000 	   48.0000 	   44.3829
    0.6027 	   67.2465 	    1.0000 	   48.0000 	   44.6769
    0.3738 	   67.3940 	    1.0000 	   48.0000 	   44.9709
    0.6943 	   67.5325 	    1.0000 	   48.0000 	   45.2479
    0.5112 	   67.6725 	    1.0000 	   48.0000 	   45.5279
    0.7401 	   67.8115 	    1.0000 	   48.0000 	   45.8060
    0.6180 	   67.9560 	    1.0000 	   48.0000 	   46.0950
    0.4349 	   68.1040 	    1.0000 	   48.0000 	   46.3910
    0.7401 	   68.2450 	    1.0000 	   48.0000 	   46.6730
    0.7248 	   68.3840 	    1.0000 	   48.0000 	   46.9510
    0.8316 	   68.5270 	    1.0000 	   48.0000 	   47.2370
    0.6180 	   68.6675 	    1.0000 	   48.0000 	   47.5181
    0.3586 	   68.8065 	    1.0000 	   48.0000 	   47.7961
    0.6180 	   68.9480 	    1.0000 	   48.0000 	   48.0791
    0.6180 	   69.0915 	    1.0000 	   48.0000 	   48.3661
    0.5722 	   69.2375 	    1.0000 	   48.0000 	   48.6581
    0.6332 	   69.3815 	    1.0000 	   48.0000 	   48.9461
    0.6790 	   69.5315 	    1.0000 	   48.0000 	   49.2462
    0.6638 	   69.6705 	    1.0000 	   48.0000 	   49.5242
    0.6332 	   69.8105 	    1.0000 	   48.0000 	   49.8042
    0.6790 	   69.9540 	    1.0000 	   48.0000 	   50.0912
    0.6485 	   70.0985 	    1.0000 	   48.0000 	   50.3802
    0.4959 	   70.2400 	    1.0000 	   48.0000 	   50.6632
    0.6332 	   70.3800 	    1.0000 	   48.0000 	   50.9432
    0.6485 	   70.5215 	    1.0000 	   48.0000 	   51.2253
    0.2670 	   70.6620 	    1.0000 	   48.0000 	   51.5073
    0.4349 	   70.8120 	    1.0000 	   48.0000 	   51.8073
    0.5875 	   70.9635 	    1.0000 	   48.0000 	   52.1103
    0.6332 	   71.1155 	    1.0000 	   48.0000 	   52.4143
    0.5875 	   71.2655 	    1.0000 	   48.0000 	   52.7144
    0.5570 	   71.4165 	    1.0000 	   48.0000 	   53.0164
    0.5722 	   71.5610 	    1.0000 	   48.0000 	   53.3054
    0.7706 	   71.7105 	    1.0000 	   48.0000 	   53.6044
    0.7095 	   71.8540 	    1.0000 	   48.0000 	   53.8914
    0.6332 	   71.9950 	    1.0000 	   48.0000 	   54.1734
    0.5875 	   72.1455 	    1.0000 	   48.0000 	   54.4745
    0.6332 	   72.2915 	    1.0000 	   48.0000 	   54.7665
    0.6332 	   72.4320 	    1.0000 	   48.0000 	   55.0475
    0.6638 	   72.5840 	    1.0000 	   48.0000 	   55.3515
    0.5875 	   72.7340 	    1.0000 	   48.0000 	   55.6515
    0.7248 	   72.8800 	    1.0000 	   48.0000 	   55.9435
    0.6943 	   73.0260 	    1.0000 	   48.0000 	   56.2356
    0.5417 	   73.1775 	    1.0000 	   48.0000 	   56.5386
    0.6027 	   73.3210 	    1.0000 	   48.0000 	   56.8256
    0.6485 	   73.4635 	    1.0000 	   48.0000 	   57.1106
    0.6180 	   73.6130 	    1.0000 	   48.0000 	   57.4096
    0.6332 	   73.7580 	    1.0000 	   48.0000 	   57.6996
    0.8316 	   73.9055 	    1.0000 	   48.0000 	   57.9947
    0.6485 	   74.0600 	    1.0000 	   48.0000 	   58.3037
    0.5722 	   74.2035 	    1.0000 	   48.0000 	   58.5907
    0.6638 	   74.3485 	    1.0000 	   48.0000 	   58.8807
    0.9079 	   74.5015 	    1.0000 	   48.0000 	   59.1867
    0.2976 	   74.6505 	    1.0000 	   48.0000 	   59.4847
    0.5570 	   74.7945 	    1.0000 	   48.0000 	   59.7728
    0.7095 	   74.9390 	    1.0000 	   49.0000 	    0.0618
    0.5875 	   75.0835 	    1.0000 	   49.0000 	    0.3508
    0.5722 	   75.2265 	    1.0000 	   49.0000 	    0.6368
    0.6485 	   75.3720 	    1.0000 	   49.0000 	    0.9278
    0.6027 	   75.5255 	    1.0000 	   49.0000 	    1.2348
    0.5264 	   75.6800 	    1.0000 	   49.0000 	    1.5439
    0.5570 	   75.8340 	    1.0000 	   49.0000 	    1.8519
    0.6943 	   75.9835 	    1.0000 	   49.0000 	    2.1509
    0.7401 	   76.1420 	    1.0000 	   49.0000 	    2.4669
    0.6332 	   76.2935 	    1.0000 	   49.0000 	    2.7699
    0.5417 	   76.4415 	    1.0000 	   49.0000 	    3.0659
    0.7706 	   76.5985 	    1.0000 	   49.0000 	    3.3800
    0.5722 	   76.7530 	    1.0000 	   49.0000 	    3.6890
    0.5264 	   76.9070 	    1.0000 	   49.0000 	    3.9970
    0.6638 	   77.0505 	    1.0000 	   49.0000 	    4.2840
    0.5722 	   77.2035 	    1.0000 	   49.0000 	    4.5900
    0.5570 	   77.3575 	    1.0000 	   49.0000 	    4.8980
    0.4959 	   77.5130 	    1.0000 	   49.0000 	    5.2091
    0.7401 	   77.6685 	    1.0000 	   49.0000 	    5.5201
    0.5722 	   77.8220 	    1.0000 	   49.0000 	    5.8271
    0.4654 	   77.9710 	    1.0000 	   49.0000 	    6.1251
    0.4654 	   78.1270 	    1.0000 	   49.0000 	    6.4371
    0.5417 	   78.2890 	    1.0000 	   49.0000 	    6.7612
    0.5570 	   78.4435 	    1.0000 	   49.0000 	    7.0702
    0.5264 	   78.5965 	    1.0000 	   49.0000 	    7.3762
    0.5570 	   78.7470 	    1.0000 	   49.0000 	    7.6772
    0.6332 	   78.8930 	    1.0000 	   49.0000 	    7.9692
    0.5722 	   79.0450 	    1.0000 	   49.0000 	    8.2732
    0.7401 	   79.1985 	    1.0000 	   49.0000 	    8.5803
    0.5722 	   79.3500 	    1.0000 	   49.0000 	    8.8833
    0.5112 	   79.5030 	    1.0000 	   49.0000 	    9.1893
    0.6638 	   79.6555 	    1.0000 	   49.0000 	    9.4943
    0.3738 	   79.8035 	    1.0000 	   49.0000 	    9.7903
    0.3738 	   79.9575 	    1.0000 	   49.0000 	   10.0983
    0.5570 	   80.1150 	    1.0000 	   49.0000 	   10.4134
    0.6943 	   80.2635 	    1.0000 	   49.0000 	   10.7104
    0.6027 	   80.4075 	    1.0000 	   49.0000 	   10.9984
    0.4349 	   80.5585 	    1.0000 	   49.0000 	   11.3004
    0.4044 	   80.7125 	    1.0000 	   49.0000 	   11.6084
    0.5570 	   80.8665 	    1.0000 	   49.0000 	   11.9164
    0.5722 	   81.0220 	    1.0000 	   49.0000 	   12.2275
    0.5264 	   81.1785 	    1.0000 	   49.0000 	   12.5405
    0.5570 	   81.3410 	    1.0000 	   49.0000 	   12.8655
    0.7553 	   81.4995 	    1.0000 	   49.0000 	   13.1825
    0.2823 	   81.6565 	    1.0000 	   49.0000 	   13.4965
    0.6180 	   81.8080 	    1.0000 	   49.0000 	   13.7996
    0.6180 	   81.9595 	    1.0000 	   49.0000 	   14.1026
    0.3586 	   82.1105 	    1.0000 	   49.0000 	   14.4046
    0.5875 	   82.2690 	    1.0000 	   49.0000 	   14.7216
    0.4959 	   82.4235 	    1.0000 	   49.0000 	   15.0306
    0.4501 	   82.5710 	    1.0000 	   49.0000 	   15.3256
    0.4959 	   82.7215 	    1.0000 	   49.0000 	   15.6267
    0.6790 	   82.8695 	    1.0000 	   49.0000 	   15.9227
    0.4501 	   83.0235 	    1.0000 	   49.0000 	   16.2307
    0.5264 	   83.1800 	    1.0000 	   49.0000 	   16.5437
    0.4044 	   83.3280 	    1.0000 	   49.0000 	   16.8397
    0.5722 	   83.4760 	    1.0000 	   49.0000 	   17.1357
    0.5417 	   83.6330 	    1.0000 	   49.0000 	   17.4498
    0.4959 	   83.7865 	    1.0000 	   49.0000 	   17.7568
    0.4807 	   83.9350 	    1.0000 	   49.0000 	   18.0538
    0.3738 	   84.0860 	    1.0000 	   49.0000 	   18.3548
    0.6790 	   84.2400 	    1.0000 	   49.0000 	   18.6638
    0.4349 	   84.3880 	    1.0000 	   49.0000 	   18.9599
    0.4654 	   84.5460 	    1.0000 	   49.0000 	   19.2759
    0.4807 	   84.7040 	    1.0000 	   49.0000 	   19.5919
    0.6180 	   84.8585 	    1.0000 	   49.0000 	   19.8999
    0.5570 	   85.0110 	    1.0000 	   49.0000 	   20.2049
    0.4501 	   85.1685 	    1.0000 	   49.0000 	   20.5199
    0.5417 	   85.3180 	    1.0000 	   49.0000 	   20.8190
    0.4196 	   85.4710 	    1.0000 	   49.0000 	   21.1250
    0.4349 	   85.6225 	    1.0000 	   49.0000 	   21.4280
    0.6027 	   85.7730 	    1.0000 	   49.0000 	   21.7290
    0.4044 	   85.9240 	    1.0000 	   49.0000 	   22.0310
    0.4196 	   86.0765 	    1.0000 	   49.0000 	   22.3360
    0.4501 	   86.2320 	    1.0000 	   49.0000 	   22.6471
    0.5264 	   86.3795 	    1.0000 	   49.0000 	   22.9421
    0.6180 	   86.5280 	    1.0000 	   49.0000 	   23.2391
    0.4959 	   86.6840 	    1.0000 	   49.0000 	   23.5511
    0.6332 	   86.8400 	    1.0000 	   49.0000 	   23.8631
    0.5570 	   86.9920 	    1.0000 	   49.0000 	   24.1672
    0.5722 	   87.1440 	    1.0000 	   49.0000 	   24.4712
    0.5875 	   87.3075 	    1.0000 	   49.0000 	   24.7982
    0.4959 	   87.4685 	    1.0000 	   49.0000 	   25.1202
    0.6180 	   87.6285 	    1.0000 	   49.0000 	   25.4402
    0.4501 	   87.7890 	    1.0000 	   49.0000 	   25.7612
    0.5417 	   87.9435 	    1.0000 	   49.0000 	   26.0703
    0.4044 	   88.1005 	    1.0000 	   49.0000 	   26.3843
    0.5417 	   88.2515 	    1.0000 	   49.0000 	   26.6863
    0.4959 	   88.4015 	    1.0000 	   49.0000 	   26.9863
    0.2365 	   88.5510 	    1.0000 	   49.0000 	   27.2853
    0.5112 	   88.7020 	    1.0000 	   49.0000 	   27.5873
    0.4959 	   88.8530 	    1.0000 	   49.0000 	   27.8894
    0.5264 	   89.0140 	    1.0000 	   49.0000 	   28.2114
    0.4501 	   89.1760 	    1.0000 	   49.0000 	   28.5354
    0.4349 	   89.3325 	    1.0000 	   49.0000 	   28.8484
    0.5112 	   89.4895 	    1.0000 	   49.0000 	   29.1624
    0.2518 	   89.6435 	    1.0000 	   49.0000 	   29.4705
    0.4196 	   89.8000 	    1.0000 	   49.0000 	   29.7835
    0.4044 	   89.9620 	    1.0000 	   49.0000 	   30.1075
    0.2670 	   90.1265 	    1.0000 	   49.0000 	   30.4365
    0.4807 	   90.2895 	    1.0000 	   49.0000 	   30.7625
    0.3891 	   90.4515 	    1.0000 	   49.0000 	   31.0865
    0.4501 	   90.6160 	    1.0000 	   49.0000 	   31.4156
    0.4196 	   90.7780 	    1.0000 	   49.0000 	   31.7396
    0.5264 	   90.9385 	    1.0000 	   49.0000 	   32.0606
    0.5417 	   91.0900 	    1.0000 	   49.0000 	   32.3636
    0.4959 	   91.2415 	    1.0000 	   49.0000 	   32.6666
    0.4349 	   91.4025 	    1.0000 	   49.0000 	   32.9887
    0.4807 	   91.5590 	    1.0000 	   49.0000 	   33.3017
    0.4349 	   91.7125 	    1.0000 	   49.0000 	   33.6087
    0.4807 	   91.7635 	    1.0000 	   49.0000 	   33.7107