File: instron/independence/relaxation/bad_l15w3_40_30_pre10/b_l15w3_40_40_pre10_step.txt
Thayer School of Engineering        Instron 4442 Mechanical Testing System
7/5/2018 5:51:10 AM

  Force (N)	Extension (mm)	Not Used	Not Used	Not Used	     Hour	    Minute	    Second
    1.1368 	    0.6887 	    5.0000 	   51.0000 	   50.8962
    1.0300 	    0.9000 	    5.0000 	   51.0000 	   51.2132
    1.0605 	    1.1180 	    5.0000 	   51.0000 	   51.5402
    1.0910 	    1.3273 	    5.0000 	   51.0000 	   51.8542
    0.9232 	    1.5213 	    5.0000 	   51.0000 	   52.1452
    0.9842 	    1.7060 	    5.0000 	   51.0000 	   52.4223
    0.6790 	    1.8753 	    5.0000 	   51.0000 	   52.6763
    1.0300 	    2.0800 	    5.0000 	   51.0000 	   52.9833
    0.6790 	    2.2240 	    5.0000 	   51.0000 	   53.1993
    1.0147 	    2.3820 	    5.0000 	   51.0000 	   53.4363
    1.0452 	    2.5000 	    5.0000 	   51.0000 	   53.6133
    0.9842 	    2.6273 	    5.0000 	   51.0000 	   53.8043
    1.1521 	    2.7467 	    5.0000 	   51.0000 	   53.9834
    1.0605 	    2.8820 	    5.0000 	   51.0000 	   54.1864
    1.1063 	    3.0147 	    5.0000 	   51.0000 	   54.3854
    1.0910 	    3.1367 	    5.0000 	   51.0000 	   54.5684
    1.1521 	    3.2487 	    5.0000 	   51.0000 	   54.7364
    1.0452 	    3.3713 	    5.0000 	   51.0000 	   54.9204
    1.0452 	    3.4993 	    5.0000 	   51.0000 	   55.1124
    1.1063 	    3.6227 	    5.0000 	   51.0000 	   55.2974
    1.0910 	    3.7487 	    5.0000 	   51.0000 	   55.4864
    1.0605 	    3.8627 	    5.0000 	   51.0000 	   55.6574
    1.1063 	    3.9820 	    5.0000 	   51.0000 	   55.8365
    1.1368 	    4.1060 	    5.0000 	   51.0000 	   56.0225
    1.1368 	    4.2273 	    5.0000 	   51.0000 	   56.2045
    0.9537 	    4.3593 	    5.0000 	   51.0000 	   56.4025
    1.1826 	    4.4760 	    5.0000 	   51.0000 	   56.5775
    1.0452 	    4.5860 	    5.0000 	   51.0000 	   56.7425
    1.0758 	    4.7093 	    5.0000 	   51.0000 	   56.9275
    1.1978 	    4.8320 	    5.0000 	   51.0000 	   57.1115
    1.1368 	    4.9580 	    5.0000 	   51.0000 	   57.3005
    1.2589 	    5.0973 	    5.0000 	   51.0000 	   57.5096
    1.2131 	    5.2087 	    5.0000 	   51.0000 	   57.6766
    1.1673 	    5.3273 	    5.0000 	   51.0000 	   57.8546
    1.1521 	    5.4527 	    5.0000 	   51.0000 	   58.0426
    1.2741 	    5.5733 	    5.0000 	   51.0000 	   58.2236
    1.2131 	    5.7007 	    5.0000 	   51.0000 	   58.4146
    1.2131 	    5.8187 	    5.0000 	   51.0000 	   58.5916
    1.2589 	    5.9313 	    5.0000 	   51.0000 	   58.7606
    1.2894 	    6.0567 	    5.0000 	   51.0000 	   58.9486
    1.2284 	    6.1833 	    5.0000 	   51.0000 	   59.1386
    1.3352 	    6.3087 	    5.0000 	   51.0000 	   59.3267
    1.3199 	    6.4280 	    5.0000 	   51.0000 	   59.5057
    1.1368 	    6.5433 	    5.0000 	   51.0000 	   59.6787
    1.2436 	    6.6553 	    5.0000 	   51.0000 	   59.8467
    1.2436 	    6.7827 	    5.0000 	   52.0000 	    0.0377
    1.2589 	    6.9100 	    5.0000 	   52.0000 	    0.2287
    1.3504 	    7.0353 	    5.0000 	   52.0000 	    0.4167
    1.2284 	    7.1533 	    5.0000 	   52.0000 	    0.5937
    1.2284 	    7.2667 	    5.0000 	   52.0000 	    0.7637
    1.2741 	    7.3920 	    5.0000 	   52.0000 	    0.9518
    1.2589 	    7.5160 	    5.0000 	   52.0000 	    1.1378
    1.2589 	    7.6400 	    5.0000 	   52.0000 	    1.3238
    1.0452 	    7.7640 	    5.0000 	   52.0000 	    1.5098
    1.3962 	    7.8820 	    5.0000 	   52.0000 	    1.6868
    1.2741 	    8.0020 	    5.0000 	   52.0000 	    1.8668
    1.5488 	    8.1280 	    5.0000 	   52.0000 	    2.0558
    1.3504 	    8.2580 	    5.0000 	   52.0000 	    2.2508
    1.3504 	    8.3853 	    5.0000 	   52.0000 	    2.4418
    1.3199 	    8.5060 	    5.0000 	   52.0000 	    2.6228
    1.3809 	    8.6160 	    5.0000 	   52.0000 	    2.7879
    1.4878 	    8.7440 	    5.0000 	   52.0000 	    2.9799
    1.3809 	    8.8720 	    5.0000 	   52.0000 	    3.1719
    1.4115 	    9.0000 	    5.0000 	   52.0000 	    3.3639
    1.4572 	    9.1227 	    5.0000 	   52.0000 	    3.5479
    1.2741 	    9.2407 	    5.0000 	   52.0000 	    3.7249
    1.5183 	    9.3593 	    5.0000 	   52.0000 	    3.9029
    1.3962 	    9.4880 	    5.0000 	   52.0000 	    4.0959
    1.5793 	    9.6140 	    5.0000 	   52.0000 	    4.2849
    1.3657 	    9.7447 	    5.0000 	   52.0000 	    4.4810
    1.5030 	    9.8660 	    5.0000 	   52.0000 	    4.6630
    1.5640 	    9.9773 	    5.0000 	   52.0000 	    4.8300
    1.5183 	   10.1127 	    5.0000 	   52.0000 	    5.0330
    1.6251 	   10.2427 	    5.0000 	   52.0000 	    5.2280
    1.1978 	   10.3727 	    5.0000 	   52.0000 	    5.4230
    1.4878 	   10.4987 	    5.0000 	   52.0000 	    5.6120
    1.5183 	   10.6147 	    5.0000 	   52.0000 	    5.7860
    1.3962 	   10.7460 	    5.0000 	   52.0000 	    5.9830
    1.5183 	   10.8780 	    5.0000 	   52.0000 	    6.1810
    1.5335 	   11.0100 	    5.0000 	   52.0000 	    6.3791
    1.6098 	   11.1427 	    5.0000 	   52.0000 	    6.5781
    1.5488 	   11.2647 	    5.0000 	   52.0000 	    6.7611
    1.6709 	   11.3940 	    5.0000 	   52.0000 	    6.9551
    1.5946 	   11.5260 	    5.0000 	   52.0000 	    7.1531
    1.6098 	   11.6593 	    5.0000 	   52.0000 	    7.3531
    1.6709 	   11.7913 	    5.0000 	   52.0000 	    7.5511
    1.5793 	   11.9153 	    5.0000 	   52.0000 	    7.7371
    1.6098 	   12.0400 	    5.0000 	   52.0000 	    7.9231
    1.5793 	   12.1733 	    5.0000 	   52.0000 	    8.1232
    1.6098 	   12.3060 	    5.0000 	   52.0000 	    8.3222
    1.8692 	   12.4353 	    5.0000 	   52.0000 	    8.5162
    1.7472 	   12.5580 	    5.0000 	   52.0000 	    8.7002
    1.6861 	   12.6713 	    5.0000 	   52.0000 	    8.8702
    1.7929 	   12.8007 	    5.0000 	   52.0000 	    9.0642
    1.5946 	   12.9373 	    5.0000 	   52.0000 	    9.2692
    1.7166 	   13.0907 	    5.0000 	   52.0000 	    9.4982
    1.6556 	   13.2160 	    5.0000 	   52.0000 	    9.6873
    1.6861 	   13.3400 	    5.0000 	   52.0000 	    9.8733
    1.8082 	   13.4707 	    5.0000 	   52.0000 	   10.0693
    1.8540 	   13.6013 	    5.0000 	   52.0000 	   10.2653
    1.8082 	   13.7353 	    5.0000 	   52.0000 	   10.4663
    1.7777 	   13.8613 	    5.0000 	   52.0000 	   10.6553
    1.7929 	   13.9767 	    5.0000 	   52.0000 	   10.8283
    1.8540 	   14.1100 	    5.0000 	   52.0000 	   11.0283
    1.6098 	   14.2427 	    5.0000 	   52.0000 	   11.2273
    1.9760 	   14.3780 	    5.0000 	   52.0000 	   11.4303
    1.9303 	   14.5100 	    5.0000 	   52.0000 	   11.6284
    1.8387 	   14.6287 	    5.0000 	   52.0000 	   11.8064
    1.8082 	   14.7487 	    5.0000 	   52.0000 	   11.9864
    2.1439 	   14.8793 	    5.0000 	   52.0000 	   12.1824
    1.9455 	   15.0153 	    5.0000 	   52.0000 	   12.3864
    1.9760 	   15.1507 	    5.0000 	   52.0000 	   12.5894
    1.8387 	   15.2747 	    5.0000 	   52.0000 	   12.7754
    1.9913 	   15.4033 	    5.0000 	   52.0000 	   12.9684
    1.9455 	   15.5360 	    5.0000 	   52.0000 	   13.1674
    1.9608 	   15.6720 	    5.0000 	   52.0000 	   13.3715
    2.0371 	   15.8000 	    5.0000 	   52.0000 	   13.5635
    2.0523 	   15.9200 	    5.0000 	   52.0000 	   13.7435
    2.0218 	   16.0393 	    5.0000 	   52.0000 	   13.9225
    1.9150 	   16.1693 	    5.0000 	   52.0000 	   14.1175
    1.9455 	   16.3047 	    5.0000 	   52.0000 	   14.3205
    2.1592 	   16.4380 	    5.0000 	   52.0000 	   14.5205
    2.0371 	   16.5633 	    5.0000 	   52.0000 	   14.7085
    2.1592 	   16.6860 	    5.0000 	   52.0000 	   14.8925
    1.9913 	   16.8180 	    5.0000 	   52.0000 	   15.0906
    2.1134 	   16.9487 	    5.0000 	   52.0000 	   15.2866
    2.0523 	   17.0853 	    5.0000 	   52.0000 	   15.4916
    1.9760 	   17.2113 	    5.0000 	   52.0000 	   15.6806
    2.1286 	   17.3287 	    5.0000 	   52.0000 	   15.8566
    2.3270 	   17.4473 	    5.0000 	   52.0000 	   16.0346
    2.2202 	   17.5807 	    5.0000 	   52.0000 	   16.2346
    2.2202 	   17.7167 	    5.0000 	   52.0000 	   16.4386
    2.1897 	   17.8500 	    5.0000 	   52.0000 	   16.6386
    2.2049 	   17.9713 	    5.0000 	   52.0000 	   16.8207
    2.0981 	   18.0913 	    5.0000 	   52.0000 	   17.0007
    2.2507 	   18.2147 	    5.0000 	   52.0000 	   17.1857
    2.3728 	   18.3507 	    5.0000 	   52.0000 	   17.3897
    2.4643 	   18.4853 	    5.0000 	   52.0000 	   17.5917
    2.3575 	   18.6140 	    5.0000 	   52.0000 	   17.7847
    2.3423 	   18.7313 	    5.0000 	   52.0000 	   17.9607
    2.2507 	   18.8527 	    5.0000 	   52.0000 	   18.1427
    2.2354 	   18.9793 	    5.0000 	   52.0000 	   18.3327
    2.1744 	   19.1220 	    5.0000 	   52.0000 	   18.5468
    2.3575 	   19.2533 	    5.0000 	   52.0000 	   18.7438
    2.4643 	   19.3707 	    5.0000 	   52.0000 	   18.9198
    2.4643 	   19.4973 	    5.0000 	   52.0000 	   19.1098
    2.4948 	   19.6300 	    5.0000 	   52.0000 	   19.3088
    2.4338 	   19.7693 	    5.0000 	   52.0000 	   19.5178
    2.4796 	   19.9033 	    5.0000 	   52.0000 	   19.7188
    2.5101 	   20.0260 	    5.0000 	   52.0000 	   19.9028
    2.3880 	   20.1580 	    5.0000 	   52.0000 	   20.1008
    2.1897 	   20.2867 	    5.0000 	   52.0000 	   20.2939
    2.4643 	   20.4253 	    5.0000 	   52.0000 	   20.5019
    2.4491 	   20.5633 	    5.0000 	   52.0000 	   20.7089
    2.5559 	   20.6907 	    5.0000 	   52.0000 	   20.8999
    2.5101 	   20.8307 	    5.0000 	   52.0000 	   21.1099
    2.6169 	   20.9707 	    5.0000 	   52.0000 	   21.3199
    2.1439 	   21.1113 	    5.0000 	   52.0000 	   21.5309
    2.7390 	   21.2433 	    5.0000 	   52.0000 	   21.7289
    2.5711 	   21.3680 	    5.0000 	   52.0000 	   21.9159
    2.4948 	   21.5040 	    5.0000 	   52.0000 	   22.1200
    2.6322 	   21.6460 	    5.0000 	   52.0000 	   22.3330
    2.7695 	   21.7860 	    5.0000 	   52.0000 	   22.5430
    2.5254 	   21.9187 	    5.0000 	   52.0000 	   22.7420
    2.6322 	   22.0407 	    5.0000 	   52.0000 	   22.9250
    2.5864 	   22.1653 	    5.0000 	   52.0000 	   23.1120
    2.7543 	   22.2887 	    5.0000 	   52.0000 	   23.2970
    2.7848 	   22.4107 	    5.0000 	   52.0000 	   23.4800
    2.8763 	   22.5373 	    5.0000 	   52.0000 	   23.6700
    2.8458 	   22.6620 	    5.0000 	   52.0000 	   23.8571
    2.8305 	   22.7847 	    5.0000 	   52.0000 	   24.0411
    2.8000 	   22.9080 	    5.0000 	   52.0000 	   24.2261
    2.6932 	   23.0320 	    5.0000 	   52.0000 	   24.4121
    2.9221 	   23.1727 	    5.0000 	   52.0000 	   24.6231
    2.8153 	   23.3013 	    5.0000 	   52.0000 	   24.8151
    2.8153 	   23.4260 	    5.0000 	   52.0000 	   25.0031
    2.9679 	   23.5867 	    5.0000 	   52.0000 	   25.2441
    3.0289 	   23.7253 	    5.0000 	   52.0000 	   25.4512
    2.8763 	   23.8580 	    5.0000 	   52.0000 	   25.6502
    3.1662 	   23.9840 	    5.0000 	   52.0000 	   25.8392
    3.0594 	   24.1187 	    5.0000 	   52.0000 	   26.0412
    2.8916 	   24.2460 	    5.0000 	   52.0000 	   26.2322
    2.9831 	   24.3907 	    5.0000 	   52.0000 	   26.4492
    3.0900 	   24.5307 	    5.0000 	   52.0000 	   26.6592
    3.0594 	   24.6627 	    5.0000 	   52.0000 	   26.8572
    2.9526 	   24.7980 	    5.0000 	   52.0000 	   27.0602
    3.0289 	   24.9280 	    5.0000 	   52.0000 	   27.2553
    3.1815 	   25.0640 	    5.0000 	   52.0000 	   27.4593
    3.1357 	   25.2053 	    5.0000 	   52.0000 	   27.6713
    3.1357 	   25.3333 	    5.0000 	   52.0000 	   27.8633
    3.0900 	   25.4693 	    5.0000 	   52.0000 	   28.0673
    3.1357 	   25.6100 	    5.0000 	   52.0000 	   28.2783
    3.1510 	   25.7373 	    5.0000 	   52.0000 	   28.4693
    3.1815 	   25.8660 	    5.0000 	   52.0000 	   28.6623
    3.1815 	   25.9947 	    5.0000 	   52.0000 	   28.8553
    3.2273 	   26.1253 	    5.0000 	   52.0000 	   29.0514
    3.3646 	   26.2647 	    5.0000 	   52.0000 	   29.2604
    3.3341 	   26.3893 	    5.0000 	   52.0000 	   29.4474
    3.3036 	   26.5233 	    5.0000 	   52.0000 	   29.6484
    3.0747 	   26.6547 	    5.0000 	   52.0000 	   29.8454
    3.4257 	   26.7793 	    5.0000 	   52.0000 	   30.0324
    3.5477 	   26.9033 	    5.0000 	   52.0000 	   30.2184
    3.4409 	   27.0413 	    5.0000 	   52.0000 	   30.4254
    3.5172 	   27.1847 	    5.0000 	   52.0000 	   30.6404
    3.5935 	   27.3127 	    5.0000 	   52.0000 	   30.8325
    3.6545 	   27.4360 	    5.0000 	   52.0000 	   31.0175
    3.6088 	   27.5667 	    5.0000 	   52.0000 	   31.2135
    3.3188 	   27.6967 	    5.0000 	   52.0000 	   31.4085
    3.5172 	   27.8220 	    5.0000 	   52.0000 	   31.5965
    3.7461 	   27.9500 	    5.0000 	   52.0000 	   31.7885
    3.5782 	   28.0773 	    5.0000 	   52.0000 	   31.9795
    3.7919 	   28.2100 	    5.0000 	   52.0000 	   32.1785
    3.6088 	   28.3520 	    5.0000 	   52.0000 	   32.3915
    3.7461 	   28.4913 	    5.0000 	   52.0000 	   32.6006
    3.8224 	   28.6260 	    5.0000 	   52.0000 	   32.8026
    3.8987 	   28.7547 	    5.0000 	   52.0000 	   32.9956
    3.7919 	   28.8987 	    5.0000 	   52.0000 	   33.2116
    3.5782 	   29.0380 	    5.0000 	   52.0000 	   33.4206
    3.9597 	   29.1780 	    5.0000 	   52.0000 	   33.6306
    3.8987 	   29.3107 	    5.0000 	   52.0000 	   33.8296
    3.8682 	   29.4353 	    5.0000 	   52.0000 	   34.0166
    3.9597 	   29.5760 	    5.0000 	   52.0000 	   34.2277
    3.9139 	   29.7220 	    5.0000 	   52.0000 	   34.4467
    3.9750 	   29.8673 	    5.0000 	   52.0000 	   34.6647
    3.9597 	   30.0000 	    5.0000 	   52.0000 	   34.8637
    3.8376 	   30.1307 	    5.0000 	   52.0000 	   35.0597
    4.1428 	   30.2593 	    5.0000 	   52.0000 	   35.2527
    4.0818 	   30.3893 	    5.0000 	   52.0000 	   35.4477
    4.2496 	   30.5173 	    5.0000 	   52.0000 	   35.6397
    4.2496 	   30.6487 	    5.0000 	   52.0000 	   35.8367
    4.1581 	   30.7747 	    5.0000 	   52.0000 	   36.0258
    4.0818 	   30.9013 	    5.0000 	   52.0000 	   36.2158
    4.2191 	   31.0340 	    5.0000 	   52.0000 	   36.4148
    4.1886 	   31.1667 	    5.0000 	   52.0000 	   36.6138
    4.3717 	   31.2987 	    5.0000 	   52.0000 	   36.8118
    4.2649 	   31.4253 	    5.0000 	   52.0000 	   37.0018
    4.0970 	   31.5627 	    5.0000 	   52.0000 	   37.2078
    4.5548 	   31.7093 	    5.0000 	   52.0000 	   37.4278
    4.2802 	   31.8460 	    5.0000 	   52.0000 	   37.6328
    4.4022 	   31.9780 	    5.0000 	   52.0000 	   37.8309
    4.6006 	   32.1113 	    5.0000 	   52.0000 	   38.0309
    4.5396 	   32.2513 	    5.0000 	   52.0000 	   38.2409
    4.3870 	   32.3933 	    5.0000 	   52.0000 	   38.4539
    4.6769 	   32.5240 	    5.0000 	   52.0000 	   38.6499
    4.4633 	   32.6593 	    5.0000 	   52.0000 	   38.8529
    4.6769 	   32.7893 	    5.0000 	   52.0000 	   39.0479
    4.6921 	   32.9307 	    5.0000 	   52.0000 	   39.2599
    4.6311 	   33.0613 	    5.0000 	   52.0000 	   39.4560
    4.7837 	   33.2053 	    5.0000 	   52.0000 	   39.6720
    4.4175 	   33.3433 	    5.0000 	   52.0000 	   39.8790
    4.7684 	   33.4700 	    5.0000 	   52.0000 	   40.0690
    4.7684 	   33.6020 	    5.0000 	   52.0000 	   40.2670
    4.5548 	   33.7327 	    5.0000 	   52.0000 	   40.4630
    4.8600 	   33.8773 	    5.0000 	   52.0000 	   40.6800
    4.8753 	   34.0167 	    5.0000 	   52.0000 	   40.8890
    5.0278 	   34.1547 	    5.0000 	   52.0000 	   41.0960
    5.0584 	   34.2853 	    5.0000 	   52.0000 	   41.2921
    4.8905 	   34.4160 	    5.0000 	   52.0000 	   41.4881
    4.9668 	   34.5607 	    5.0000 	   52.0000 	   41.7051
    4.9516 	   34.6967 	    5.0000 	   52.0000 	   41.9091
    4.8295 	   34.8253 	    5.0000 	   52.0000 	   42.1021
    5.1804 	   34.9680 	    5.0000 	   52.0000 	   42.3161
    5.1804 	   35.1073 	    5.0000 	   52.0000 	   42.5251
    4.8142 	   35.2367 	    5.0000 	   52.0000 	   42.7191
    5.1347 	   35.3707 	    5.0000 	   52.0000 	   42.9192
    5.2720 	   35.5040 	    5.0000 	   52.0000 	   43.1192
    5.2415 	   35.6473 	    5.0000 	   52.0000 	   43.3342
    5.1499 	   35.7933 	    5.0000 	   52.0000 	   43.5532
    5.1652 	   35.9400 	    5.0000 	   52.0000 	   43.7732
    5.3483 	   36.0827 	    5.0000 	   52.0000 	   43.9872
    5.1347 	   36.2247 	    5.0000 	   52.0000 	   44.2002
    5.3330 	   36.3753 	    5.0000 	   52.0000 	   44.4262
    5.5161 	   36.5240 	    5.0000 	   52.0000 	   44.6493
    5.4856 	   36.6720 	    5.0000 	   52.0000 	   44.8713
    5.5161 	   36.8087 	    5.0000 	   52.0000 	   45.0763
    5.4246 	   36.9453 	    5.0000 	   52.0000 	   45.2813
    5.4093 	   37.0807 	    5.0000 	   52.0000 	   45.4843
    5.5772 	   37.2213 	    5.0000 	   52.0000 	   45.6953
    5.5619 	   37.3680 	    5.0000 	   52.0000 	   45.9153
    5.4093 	   37.4987 	    5.0000 	   52.0000 	   46.1113
    5.5619 	   37.6353 	    5.0000 	   52.0000 	   46.3163
    5.6229 	   37.7673 	    5.0000 	   52.0000 	   46.5144
    5.6229 	   37.9007 	    5.0000 	   52.0000 	   46.7144
    5.6535 	   38.0340 	    5.0000 	   52.0000 	   46.9144
    5.6077 	   38.1680 	    5.0000 	   52.0000 	   47.1154
    5.7145 	   38.3007 	    5.0000 	   52.0000 	   47.3144
    5.7145 	   38.4413 	    5.0000 	   52.0000 	   47.5254
    5.8213 	   38.5787 	    5.0000 	   52.0000 	   47.7314
    5.8366 	   38.7193 	    5.0000 	   52.0000 	   47.9424
    5.8366 	   38.8513 	    5.0000 	   52.0000 	   48.1404
    5.9129 	   38.9920 	    5.0000 	   52.0000 	   48.3515
    5.9586 	   39.1393 	    5.0000 	   52.0000 	   48.5725
    6.0349 	   39.2740 	    5.0000 	   52.0000 	   48.7745
    5.9434 	   39.4127 	    5.0000 	   52.0000 	   48.9825
    6.1112 	   39.5507 	    5.0000 	   52.0000 	   49.1895
    6.0197 	   39.6947 	    5.0000 	   52.0000 	   49.4055
    6.1570 	   39.8393 	    5.0000 	   52.0000 	   49.6225
    5.9586 	   39.9860 	    5.0000 	   52.0000 	   49.8425
    5.8518 	   40.1267 	    5.0000 	   52.0000 	   50.0536
    5.7298 	   40.2593 	    5.0000 	   52.0000 	   50.2526
    5.8976 	   40.3933 	    5.0000 	   52.0000 	   50.4536
    5.8671 	   40.5400 	    5.0000 	   52.0000 	   50.6736
    5.7603 	   40.6873 	    5.0000 	   52.0000 	   50.8946
    5.8976 	   40.8220 	    5.0000 	   52.0000 	   51.0966
    5.7755 	   40.9567 	    5.0000 	   52.0000 	   51.2986
    5.7450 	   41.0927 	    5.0000 	   52.0000 	   51.5026
    5.8213 	   41.2320 	    5.0000 	   52.0000 	   51.7117
    5.7298 	   41.3787 	    5.0000 	   52.0000 	   51.9317
    5.7298 	   41.5140 	    5.0000 	   52.0000 	   52.1347
    5.6382 	   41.6493 	    5.0000 	   52.0000 	   52.3377
    5.6382 	   41.8013 	    5.0000 	   52.0000 	   52.5657
    5.6535 	   41.9553 	    5.0000 	   52.0000 	   52.7967
    5.7298 	   42.0993 	    5.0000 	   52.0000 	   53.0127
    5.6535 	   42.2400 	    5.0000 	   52.0000 	   53.2237
    5.8366 	   42.3833 	    5.0000 	   52.0000 	   53.4388
    5.5772 	   42.5327 	    5.0000 	   52.0000 	   53.6628
    5.5619 	   42.6840 	    5.0000 	   52.0000 	   53.8898
    5.6077 	   42.8240 	    5.0000 	   52.0000 	   54.0998
    5.7603 	   42.9733 	    5.0000 	   52.0000 	   54.3238
    5.7450 	   43.1227 	    5.0000 	   52.0000 	   54.5478
    5.5161 	   43.2620 	    5.0000 	   52.0000 	   54.7568
    5.6840 	   43.3993 	    5.0000 	   52.0000 	   54.9628
    5.5161 	   43.5407 	    5.0000 	   52.0000 	   55.1749
    5.5772 	   43.6913 	    5.0000 	   52.0000 	   55.4009
    5.5314 	   43.8387 	    5.0000 	   52.0000 	   55.6219
    5.5467 	   43.9893 	    5.0000 	   52.0000 	   55.8479
    5.5314 	   44.1367 	    5.0000 	   52.0000 	   56.0689
    5.4551 	   44.2713 	    5.0000 	   52.0000 	   56.2709
    5.5467 	   44.4167 	    5.0000 	   52.0000 	   56.4889
    5.5619 	   44.5693 	    5.0000 	   52.0000 	   56.7179
    5.1347 	   44.7193 	    5.0000 	   52.0000 	   56.9430
    5.5161 	   44.8573 	    5.0000 	   52.0000 	   57.1500
    5.4856 	   44.9993 	    5.0000 	   52.0000 	   57.3630
    5.5009 	   45.1540 	    5.0000 	   52.0000 	   57.5950
    5.4246 	   45.3107 	    5.0000 	   52.0000 	   57.8300
    5.2415 	   45.4593 	    5.0000 	   52.0000 	   58.0530
    5.5772 	   45.5960 	    5.0000 	   52.0000 	   58.2580
    5.3788 	   45.7340 	    5.0000 	   52.0000 	   58.4650
    5.4246 	   45.8733 	    5.0000 	   52.0000 	   58.6741
    5.4856 	   46.0193 	    5.0000 	   52.0000 	   58.8931
    5.4246 	   46.1633 	    5.0000 	   52.0000 	   59.1091
    5.4246 	   46.3147 	    5.0000 	   52.0000 	   59.3361
    5.4093 	   46.4687 	    5.0000 	   52.0000 	   59.5671
    5.4398 	   46.6107 	    5.0000 	   52.0000 	   59.7801
    5.4856 	   46.7600 	    5.0000 	   53.0000 	    0.0041
    5.3178 	   46.9033 	    5.0000 	   53.0000 	    0.2191
    5.3330 	   47.0573 	    5.0000 	   53.0000 	    0.4492
    5.3635 	   47.2120 	    5.0000 	   53.0000 	    0.6812
    5.4398 	   47.3633 	    5.0000 	   53.0000 	    0.9082
    5.3941 	   47.5060 	    5.0000 	   53.0000 	    1.1222
    5.3941 	   47.6433 	    5.0000 	   53.0000 	    1.3282
    5.4856 	   47.7927 	    5.0000 	   53.0000 	    1.5522
    5.3483 	   47.9320 	    5.0000 	   53.0000 	    1.7612
    5.4398 	   48.0813 	    5.0000 	   53.0000 	    1.9852
    5.3330 	   48.2227 	    5.0000 	   53.0000 	    2.1973
    5.4704 	   48.3760 	    5.0000 	   53.0000 	    2.4273
    5.4093 	   48.5293 	    5.0000 	   53.0000 	    2.6573
    5.3788 	   48.6853 	    5.0000 	   53.0000 	    2.8913
    5.3178 	   48.8313 	    5.0000 	   53.0000 	    3.1103
    5.2873 	   48.9720 	    5.0000 	   53.0000 	    3.3213
    5.4246 	   49.1153 	    5.0000 	   53.0000 	    3.5363
    5.3788 	   49.2567 	    5.0000 	   53.0000 	    3.7483
    5.5314 	   49.4053 	    5.0000 	   53.0000 	    3.9714
    5.5619 	   49.5513 	    5.0000 	   53.0000 	    4.1894
    5.4856 	   49.7000 	    5.0000 	   53.0000 	    4.4134
    5.1804 	   49.8560 	    5.0000 	   53.0000 	    4.6474
    5.3941 	   50.0113 	    5.0000 	   53.0000 	    4.8804
    5.2415 	   50.1600 	    5.0000 	   53.0000 	    5.1034
    5.3483 	   50.3173 	    5.0000 	   53.0000 	    5.3394
    5.3941 	   50.4833 	    5.0000 	   53.0000 	    5.5884
    5.2720 	   50.6480 	    5.0000 	   53.0000 	    5.8355
    5.3483 	   50.8027 	    5.0000 	   53.0000 	    6.0675
    5.4398 	   50.9440 	    5.0000 	   53.0000 	    6.2795
    5.2415 	   51.1000 	    5.0000 	   53.0000 	    6.5135
    5.3788 	   51.2580 	    5.0000 	   53.0000 	    6.7505
    5.2110 	   51.4033 	    5.0000 	   53.0000 	    6.9685
    5.4856 	   51.5460 	    5.0000 	   53.0000 	    7.1825
    5.2415 	   51.7013 	    5.0000 	   53.0000 	    7.4156
    5.3025 	   51.8573 	    5.0000 	   53.0000 	    7.6496
    5.4551 	   52.0140 	    5.0000 	   53.0000 	    7.8846
    5.3178 	   52.1667 	    5.0000 	   53.0000 	    8.1136
    5.3178 	   52.3073 	    5.0000 	   53.0000 	    8.3246
    5.4704 	   52.4633 	    5.0000 	   53.0000 	    8.5586
    5.5161 	   52.6260 	    5.0000 	   53.0000 	    8.8026
    5.2110 	   52.7787 	    5.0000 	   53.0000 	    9.0316
    5.2873 	   52.9220 	    5.0000 	   53.0000 	    9.2457
    5.1499 	   53.0867 	    5.0000 	   53.0000 	    9.4937
    5.3483 	   53.2433 	    5.0000 	   53.0000 	    9.7287
    5.3178 	   53.4087 	    5.0000 	   53.0000 	    9.9767
    5.4093 	   53.5533 	    5.0000 	   53.0000 	   10.1937
    5.3788 	   53.6967 	    5.0000 	   53.0000 	   10.4087
    5.3330 	   53.8513 	    5.0000 	   53.0000 	   10.6407
    5.3330 	   54.0107 	    5.0000 	   53.0000 	   10.8797
    5.2873 	   54.1640 	    5.0000 	   53.0000 	   11.1098
    5.3635 	   54.3213 	    5.0000 	   53.0000 	   11.3458
    5.2720 	   54.4807 	    5.0000 	   53.0000 	   11.5848
    5.3330 	   54.6420 	    5.0000 	   53.0000 	   11.8268
    5.3635 	   54.7940 	    5.0000 	   53.0000 	   12.0548
    5.3178 	   54.9440 	    5.0000 	   53.0000 	   12.2798
    5.2415 	   55.0953 	    5.0000 	   53.0000 	   12.5068
    5.3635 	   55.2393 	    5.0000 	   53.0000 	   12.7229
    5.2720 	   55.3873 	    5.0000 	   53.0000 	   12.9449
    5.2110 	   55.5340 	    5.0000 	   53.0000 	   13.1649
    5.1652 	   55.6900 	    5.0000 	   53.0000 	   13.3989
    5.3178 	   55.8527 	    5.0000 	   53.0000 	   13.6429
    5.3635 	   56.0133 	    5.0000 	   53.0000 	   13.8839
    5.3788 	   56.1693 	    5.0000 	   53.0000 	   14.1179
    5.2567 	   56.3167 	    5.0000 	   53.0000 	   14.3389
    5.3025 	   56.4640 	    5.0000 	   53.0000 	   14.5600
    5.2262 	   56.6120 	    5.0000 	   53.0000 	   14.7820
    5.1652 	   56.7620 	    5.0000 	   53.0000 	   15.0070
    5.1194 	   56.9093 	    5.0000 	   53.0000 	   15.2280
    5.2567 	   57.0613 	    5.0000 	   53.0000 	   15.4560
    5.1957 	   57.2153 	    5.0000 	   53.0000 	   15.6870
    5.2262 	   57.3627 	    5.0000 	   53.0000 	   15.9080
    5.2720 	   57.5133 	    5.0000 	   53.0000 	   16.1341
    5.3483 	   57.6580 	    5.0000 	   53.0000 	   16.3511
    5.2873 	   57.8093 	    5.0000 	   53.0000 	   16.5781
    5.3025 	   57.9573 	    5.0000 	   53.0000 	   16.8001
    5.1957 	   58.1153 	    5.0000 	   53.0000 	   17.0371
    5.2415 	   58.2627 	    5.0000 	   53.0000 	   17.2581
    5.2110 	   58.4127 	    5.0000 	   53.0000 	   17.4831
    5.2873 	   58.5760 	    5.0000 	   53.0000 	   17.7281
    5.3025 	   58.7307 	    5.0000 	   53.0000 	   17.9592
    5.3330 	   58.8793 	    5.0000 	   53.0000 	   18.1822
    5.2110 	   59.0353 	    5.0000 	   53.0000 	   18.4162
    5.2110 	   59.1880 	    5.0000 	   53.0000 	   18.6452
    5.2567 	   59.3527 	    5.0000 	   53.0000 	   18.8922
    5.2567 	   59.5027 	    5.0000 	   53.0000 	   19.1172
    5.3483 	   59.6487 	    5.0000 	   53.0000 	   19.3362
    5.3788 	   59.7987 	    5.0000 	   53.0000 	   19.5612
    5.2262 	   59.9640 	    5.0000 	   53.0000 	   19.8093
    5.3635 	   60.1233 	    5.0000 	   53.0000 	   20.0483
    5.3178 	   60.2707 	    5.0000 	   53.0000 	   20.2683
    5.1499 	   60.4180 	    5.0000 	   53.0000 	   20.4903
    5.3025 	   60.5660 	    5.0000 	   53.0000 	   20.7123
    5.2110 	   60.7233 	    5.0000 	   53.0000 	   20.9483
    5.2415 	   60.8813 	    5.0000 	   53.0000 	   21.1843
    5.2567 	   61.0340 	    5.0000 	   53.0000 	   21.4144
    5.4093 	   61.1993 	    5.0000 	   53.0000 	   21.6624
    5.2262 	   61.3647 	    5.0000 	   53.0000 	   21.9104
    5.1957 	   61.5313 	    5.0000 	   53.0000 	   22.1604
    5.2262 	   61.6913 	    5.0000 	   53.0000 	   22.4004
    5.1347 	   61.8533 	    5.0000 	   53.0000 	   22.6434
    5.3483 	   62.0207 	    5.0000 	   53.0000 	   22.8944
    4.9058 	   62.1807 	    5.0000 	   53.0000 	   23.1345
    5.3025 	   62.3333 	    5.0000 	   53.0000 	   23.3635
    4.9516 	   62.5000 	    5.0000 	   53.0000 	   23.6135
    5.2110 	   62.6660 	    5.0000 	   53.0000 	   23.8625
    4.9363 	   62.8300 	    5.0000 	   53.0000 	   24.1085
    5.1194 	   62.9840 	    5.0000 	   53.0000 	   24.3395
    5.1804 	   63.1527 	    5.0000 	   53.0000 	   24.5925
    5.1957 	   63.3153 	    5.0000 	   53.0000 	   24.8365
    5.2567 	   63.4813 	    5.0000 	   53.0000 	   25.0856
    5.2567 	   63.6320 	    5.0000 	   53.0000 	   25.3116
    5.2720 	   63.7847 	    5.0000 	   53.0000 	   25.5406
    5.2415 	   63.9493 	    5.0000 	   53.0000 	   25.7876
    5.3025 	   64.1200 	    5.0000 	   53.0000 	   26.0436
    5.2262 	   64.2780 	    5.0000 	   53.0000 	   26.2806
    5.1499 	   64.4453 	    5.0000 	   53.0000 	   26.5316
    5.1804 	   64.6113 	    5.0000 	   53.0000 	   26.7807
    4.9973 	   64.7760 	    5.0000 	   53.0000 	   27.0277
    5.0278 	   64.9393 	    5.0000 	   53.0000 	   27.2727
    5.1499 	   65.1000 	    5.0000 	   53.0000 	   27.5137
    4.9821 	   65.2687 	    5.0000 	   53.0000 	   27.7667
    5.1041 	   65.4353 	    5.0000 	   53.0000 	   28.0167
    5.2415 	   65.5973 	    5.0000 	   53.0000 	   28.2597
    5.2110 	   65.7473 	    5.0000 	   53.0000 	   28.4848
    5.2415 	   65.9107 	    5.0000 	   53.0000 	   28.7298
    5.1347 	   66.0813 	    5.0000 	   53.0000 	   28.9858
    5.1041 	   66.2407 	    5.0000 	   53.0000 	   29.2248
    5.0278 	   66.3947 	    5.0000 	   53.0000 	   29.4558
    4.8753 	   66.5613 	    5.0000 	   53.0000 	   29.7058
    5.0584 	   66.7280 	    5.0000 	   53.0000 	   29.9558
    5.1499 	   66.8893 	    5.0000 	   53.0000 	   30.1979
    5.2415 	   67.0453 	    5.0000 	   53.0000 	   30.4319
    5.2262 	   67.2113 	    5.0000 	   53.0000 	   30.6809
    5.1499 	   67.3827 	    5.0000 	   53.0000 	   30.9379
    5.2262 	   67.5487 	    5.0000 	   53.0000 	   31.1869
    5.1499 	   67.7013 	    5.0000 	   53.0000 	   31.4159
    5.0889 	   67.8547 	    5.0000 	   53.0000 	   31.6459
    5.0431 	   68.0113 	    5.0000 	   53.0000 	   31.8810
    5.1041 	   68.1693 	    5.0000 	   53.0000 	   32.1180
    5.1194 	   68.3253 	    5.0000 	   53.0000 	   32.3520
    5.1194 	   68.4813 	    5.0000 	   53.0000 	   32.5860
    5.1957 	   68.6427 	    5.0000 	   53.0000 	   32.8280
    5.1041 	   68.8133 	    5.0000 	   53.0000 	   33.0840
    5.1041 	   68.9867 	    5.0000 	   53.0000 	   33.3440
    5.0889 	   69.1433 	    5.0000 	   53.0000 	   33.5790
    5.0889 	   69.3040 	    5.0000 	   53.0000 	   33.8201
    5.0278 	   69.4627 	    5.0000 	   53.0000 	   34.0581
    5.1041 	   69.6347 	    5.0000 	   53.0000 	   34.3161
    5.1652 	   69.7947 	    5.0000 	   53.0000 	   34.5561
    5.3330 	   69.9533 	    5.0000 	   53.0000 	   34.7941
    5.0584 	   70.1133 	    5.0000 	   53.0000 	   35.0341
    5.2567 	   70.2840 	    5.0000 	   53.0000 	   35.2891
    5.2567 	   70.4460 	    5.0000 	   53.0000 	   35.5322
    5.1347 	   70.6073 	    5.0000 	   53.0000 	   35.7742
    5.2873 	   70.7653 	    5.0000 	   53.0000 	   36.0112
    5.1957 	   70.9380 	    5.0000 	   53.0000 	   36.2702
    5.1194 	   71.1080 	    5.0000 	   53.0000 	   36.5252
    5.2873 	   71.2787 	    5.0000 	   53.0000 	   36.7812
    5.1499 	   71.4413 	    5.0000 	   53.0000 	   37.0252
    5.1347 	   71.6127 	    5.0000 	   53.0000 	   37.2823
    5.3330 	   71.7740 	    5.0000 	   53.0000 	   37.5243
    5.0431 	   71.9333 	    5.0000 	   53.0000 	   37.7633
    4.9973 	   72.0940 	    5.0000 	   53.0000 	   38.0043
    5.1194 	   72.2620 	    5.0000 	   53.0000 	   38.2563
    5.1804 	   72.4293 	    5.0000 	   53.0000 	   38.5073
    5.1652 	   72.5907 	    5.0000 	   53.0000 	   38.7493
    5.0889 	   72.7527 	    5.0000 	   53.0000 	   38.9924
    5.1804 	   72.9220 	    5.0000 	   53.0000 	   39.2464
    5.1499 	   73.0913 	    5.0000 	   53.0000 	   39.5004
    5.0889 	   73.2533 	    5.0000 	   53.0000 	   39.7434
    4.9973 	   73.4167 	    5.0000 	   53.0000 	   39.9884
    5.0736 	   73.5933 	    5.0000 	   53.0000 	   40.2534
    4.9973 	   73.7627 	    5.0000 	   53.0000 	   40.5074
    5.0431 	   73.9260 	    5.0000 	   53.0000 	   40.7525
    5.1041 	   74.0920 	    5.0000 	   53.0000 	   41.0015
    5.1652 	   74.2633 	    5.0000 	   53.0000 	   41.2585
    5.0278 	   74.4347 	    5.0000 	   53.0000 	   41.5155
    5.1194 	   74.5973 	    5.0000 	   53.0000 	   41.7595
    5.0431 	   74.7593 	    5.0000 	   53.0000 	   42.0025
    5.0431 	   74.9247 	    5.0000 	   53.0000 	   42.2505
    5.0431 	   75.1000 	    5.0000 	   53.0000 	   42.5136
    5.0126 	   75.2800 	    5.0000 	   53.0000 	   42.7836
    5.0431 	   75.4620 	    5.0000 	   53.0000 	   43.0566
    5.0736 	   75.6253 	    5.0000 	   53.0000 	   43.3016
    5.0584 	   75.7920 	    5.0000 	   53.0000 	   43.5516
    5.1804 	   75.9580 	    5.0000 	   53.0000 	   43.8006
    5.1347 	   76.1293 	    5.0000 	   53.0000 	   44.0576
    4.9821 	   76.2980 	    5.0000 	   53.0000 	   44.3107
    5.1041 	   76.4720 	    5.0000 	   53.0000 	   44.5717
    5.0584 	   76.6353 	    5.0000 	   53.0000 	   44.8167
    5.1041 	   76.8107 	    5.0000 	   53.0000 	   45.0797
    5.1347 	   76.9847 	    5.0000 	   53.0000 	   45.3407
    5.2110 	   77.1527 	    5.0000 	   53.0000 	   45.5927
    5.0736 	   77.3187 	    5.0000 	   53.0000 	   45.8418
    5.1652 	   77.4907 	    5.0000 	   53.0000 	   46.0998
    4.9516 	   77.6660 	    5.0000 	   53.0000 	   46.3628
    5.1347 	   77.8333 	    5.0000 	   53.0000 	   46.6138
    4.7990 	   78.0087 	    5.0000 	   53.0000 	   46.8768
    5.0126 	   78.1860 	    5.0000 	   53.0000 	   47.1428
    4.9668 	   78.3607 	    5.0000 	   53.0000 	   47.4048
    5.0736 	   78.5200 	    5.0000 	   53.0000 	   47.6439
    5.1347 	   78.6840 	    5.0000 	   53.0000 	   47.8899
    5.2110 	   78.8513 	    5.0000 	   53.0000 	   48.1409
    5.1499 	   79.0207 	    5.0000 	   53.0000 	   48.3949
    5.1499 	   79.1867 	    5.0000 	   53.0000 	   48.6439
    5.1652 	   79.3627 	    5.0000 	   53.0000 	   48.9079
    4.9058 	   79.5407 	    5.0000 	   53.0000 	   49.1749
    5.0126 	   79.7073 	    5.0000 	   53.0000 	   49.4250
    4.9973 	   79.8680 	    5.0000 	   53.0000 	   49.6660
    5.0431 	   80.0373 	    5.0000 	   53.0000 	   49.9200
    5.0431 	   80.2027 	    5.0000 	   53.0000 	   50.1680
    5.0278 	   80.3640 	    5.0000 	   53.0000 	   50.4100
    5.1652 	   80.5200 	    5.0000 	   53.0000 	   50.6440
    4.9668 	   80.6853 	    5.0000 	   53.0000 	   50.8920
    4.9821 	   80.8533 	    5.0000 	   53.0000 	   51.1441
    4.6464 	   81.0180 	    5.0000 	   53.0000 	   51.3911
    4.5396 	   81.1773 	    5.0000 	   53.0000 	   51.6301
    4.4480 	   81.3407 	    5.0000 	   53.0000 	   51.8751
    4.3107 	   81.5047 	    5.0000 	   53.0000 	   52.1211
    4.0970 	   81.6807 	    5.0000 	   53.0000 	   52.3851
    4.0055 	   81.8447 	    5.0000 	   53.0000 	   52.6311
    3.9902 	   82.0127 	    5.0000 	   53.0000 	   52.8822
    3.9597 	   82.1813 	    5.0000 	   53.0000 	   53.1352
    3.7461 	   82.3460 	    5.0000 	   53.0000 	   53.3822
    3.6851 	   82.5093 	    5.0000 	   53.0000 	   53.6272
    3.5477 	   82.6880 	    5.0000 	   53.0000 	   53.8952
    3.6240 	   82.8673 	    5.0000 	   53.0000 	   54.1642
    3.4257 	   83.0447 	    5.0000 	   53.0000 	   54.4302
    3.3494 	   83.2047 	    5.0000 	   53.0000 	   54.6703
    3.3646 	   83.3807 	    5.0000 	   53.0000 	   54.9343
    3.3951 	   83.5520 	    5.0000 	   53.0000 	   55.1913
    3.2731 	   83.7180 	    5.0000 	   53.0000 	   55.4403
    3.2120 	   83.8873 	    5.0000 	   53.0000 	   55.6943
    3.1510 	   84.0627 	    5.0000 	   53.0000 	   55.9573
    3.1205 	   84.2360 	    5.0000 	   53.0000 	   56.2173
    3.1052 	   84.4000 	    5.0000 	   53.0000 	   56.4634
    2.9068 	   84.5673 	    5.0000 	   53.0000 	   56.7144
    3.0900 	   84.7420 	    5.0000 	   53.0000 	   56.9764
    2.9221 	   84.9087 	    5.0000 	   53.0000 	   57.2264
    2.8763 	   85.0840 	    5.0000 	   53.0000 	   57.4894
    2.9526 	   85.2500 	    5.0000 	   53.0000 	   57.7384
    2.7543 	   85.4333 	    5.0000 	   53.0000 	   58.0134
    2.6932 	   85.6093 	    5.0000 	   53.0000 	   58.2775
    2.7085 	   85.7847 	    5.0000 	   53.0000 	   58.5405
    2.7085 	   85.9560 	    5.0000 	   53.0000 	   58.7975
    2.6017 	   86.1340 	    5.0000 	   53.0000 	   59.0645
    2.4643 	   86.3140 	    5.0000 	   53.0000 	   59.3345
    2.6169 	   86.4840 	    5.0000 	   53.0000 	   59.5895
    2.5864 	   86.6580 	    5.0000 	   53.0000 	   59.8506
    2.6017 	   86.8380 	    5.0000 	   54.0000 	    0.1206
    2.4948 	   87.0173 	    5.0000 	   54.0000 	    0.3896
    2.4491 	   87.1840 	    5.0000 	   54.0000 	    0.6396
    2.4186 	   87.3580 	    5.0000 	   54.0000 	    0.9006
    2.4338 	   87.5433 	    5.0000 	   54.0000 	    1.1786
    2.3270 	   87.7187 	    5.0000 	   54.0000 	    1.4416
    2.3270 	   87.8873 	    5.0000 	   54.0000 	    1.6947
    2.2812 	   88.0653 	    5.0000 	   54.0000 	    1.9617
    2.2354 	   88.2460 	    5.0000 	   54.0000 	    2.2327
    2.3880 	   88.4207 	    5.0000 	   54.0000 	    2.4947
    2.2202 	   88.5893 	    5.0000 	   54.0000 	    2.7477
    2.1286 	   88.7573 	    5.0000 	   54.0000 	    2.9997
    2.1286 	   88.9313 	    5.0000 	   54.0000 	    3.2607
    2.0676 	   89.1013 	    5.0000 	   54.0000 	    3.5158
    2.1134 	   89.2687 	    5.0000 	   54.0000 	    3.7668
    2.1744 	   89.4500 	    5.0000 	   54.0000 	    4.0388
    2.1134 	   89.6207 	    5.0000 	   54.0000 	    4.2948
    2.1744 	   89.7947 	    5.0000 	   54.0000 	    4.5558
    2.0066 	   89.9680 	    5.0000 	   54.0000 	    4.8158
    1.9760 	   90.1460 	    5.0000 	   54.0000 	    5.0829
    2.0829 	   90.3233 	    5.0000 	   54.0000 	    5.3489
    2.0829 	   90.4967 	    5.0000 	   54.0000 	    5.6089
    2.0371 	   90.6713 	    5.0000 	   54.0000 	    5.8709
    1.8387 	   90.8507 	    5.0000 	   54.0000 	    6.1399
    2.0066 	   91.0220 	    5.0000 	   54.0000 	    6.3969
    1.6709 	   91.1933 	    5.0000 	   54.0000 	    6.6539
    1.7624 	   91.3613 	    5.0000 	   54.0000 	    6.9060
    1.9760 	   91.5320 	    5.0000 	   54.0000 	    7.1620
    1.7014 	   91.7113 	    5.0000 	   54.0000 	    7.4310
    1.8082 	   91.8813 	    5.0000 	   54.0000 	    7.6860
    1.9455 	   92.0527 	    5.0000 	   54.0000 	    7.9430
    1.8082 	   92.2313 	    5.0000 	   54.0000 	    8.2110
    1.8082 	   92.4067 	    5.0000 	   54.0000 	    8.4740
    1.8082 	   92.5860 	    5.0000 	   54.0000 	    8.7431
    1.5488 	   92.7700 	    5.0000 	   54.0000 	    9.0191
    1.8235 	   92.9487 	    5.0000 	   54.0000 	    9.2871
    1.6709 	   93.1227 	    5.0000 	   54.0000 	    9.5481
    1.7166 	   93.2940 	    5.0000 	   54.0000 	    9.8051
    1.7929 	   93.4713 	    5.0000 	   54.0000 	   10.0711
    1.6251 	   93.6560 	    5.0000 	   54.0000 	   10.3472
    1.7472 	   93.8333 	    5.0000 	   54.0000 	   10.6132
    1.7319 	   94.0140 	    5.0000 	   54.0000 	   10.8842
    1.6861 	   94.2027 	    5.0000 	   54.0000 	   11.1672
    1.6861 	   94.3840 	    5.0000 	   54.0000 	   11.4392
    1.5488 	   94.5547 	    5.0000 	   54.0000 	   11.6952
    1.5183 	   94.7240 	    5.0000 	   54.0000 	   11.9492
    1.4267 	   94.9027 	    5.0000 	   54.0000 	   12.2173
    1.5946 	   95.0793 	    5.0000 	   54.0000 	   12.4823
    1.5030 	   95.2567 	    5.0000 	   54.0000 	   12.7483
    1.6556 	   95.4447 	    5.0000 	   54.0000 	   13.0293
    1.7014 	   95.6320 	    5.0000 	   54.0000 	   13.3113
    1.4267 	   95.8153 	    5.0000 	   54.0000 	   13.5863
    1.4267 	   95.9900 	    5.0000 	   54.0000 	   13.8484
    1.5640 	   96.1820 	    5.0000 	   54.0000 	   14.1364
    1.6251 	   96.3573 	    5.0000 	   54.0000 	   14.3994
    1.3962 	   96.5353 	    5.0000 	   54.0000 	   14.6664
    1.3962 	   96.7060 	    5.0000 	   54.0000 	   14.9224
    1.1978 	   96.8767 	    5.0000 	   54.0000 	   15.1784
    1.3809 	   97.0500 	    5.0000 	   54.0000 	   15.4384
    1.4572 	   97.2253 	    5.0000 	   54.0000 	   15.7015
    1.4267 	   97.4033 	    5.0000 	   54.0000 	   15.9685
    1.3657 	   97.5753 	    5.0000 	   54.0000 	   16.2265
    1.2894 	   97.7513 	    5.0000 	   54.0000 	   16.4905
    1.3046 	   97.9260 	    5.0000 	   54.0000 	   16.7525
    1.3809 	   98.1073 	    5.0000 	   54.0000 	   17.0245
    1.2894 	   98.2980 	    5.0000 	   54.0000 	   17.3106
    1.2741 	   98.4873 	    5.0000 	   54.0000 	   17.5946
    1.1673 	   98.6593 	    5.0000 	   54.0000 	   17.8526
    1.3352 	   98.8313 	    5.0000 	   54.0000 	   18.1106
    1.3809 	   99.0073 	    5.0000 	   54.0000 	   18.3746
    1.4725 	   99.1887 	    5.0000 	   54.0000 	   18.6466
    1.2741 	   99.3653 	    5.0000 	   54.0000 	   18.9116
    1.3199 	   99.5427 	    5.0000 	   54.0000 	   19.1777
    1.2894 	   99.7287 	    5.0000 	   54.0000 	   19.4567
    1.2436 	   99.9053 	    5.0000 	   54.0000 	   19.7217
    1.4115 	  100.0920 	    5.0000 	   54.0000 	   20.0017
    1.1673 	  100.2767 	    5.0000 	   54.0000 	   20.2787
    1.2894 	  100.4527 	    5.0000 	   54.0000 	   20.5427
    1.1215 	  100.6273 	    5.0000 	   54.0000 	   20.8047
    1.3504 	  100.8113 	    5.0000 	   54.0000 	   21.0808
    1.0910 	  100.9993 	    5.0000 	   54.0000 	   21.3628
    1.3046 	  101.1773 	    5.0000 	   54.0000 	   21.6298
    1.1368 	  101.3560 	    5.0000 	   54.0000 	   21.8978
    1.2436 	  101.5420 	    5.0000 	   54.0000 	   22.1768
    1.0758 	  101.7267 	    5.0000 	   54.0000 	   22.4538
    1.3504 	  101.9060 	    5.0000 	   54.0000 	   22.7229
    1.1521 	  102.0780 	    5.0000 	   54.0000 	   22.9809
    1.1215 	  102.2587 	    5.0000 	   54.0000 	   23.2519
    1.0452 	  102.4447 	    5.0000 	   54.0000 	   23.5309
    1.2284 	  102.6247 	    5.0000 	   54.0000 	   23.8009
    1.0452 	  102.8007 	    5.0000 	   54.0000 	   24.0649
    1.1368 	  102.9807 	    5.0000 	   54.0000 	   24.3350
    1.0452 	  103.1593 	    5.0000 	   54.0000 	   24.6030
    1.0605 	  103.3433 	    5.0000 	   54.0000 	   24.8790
    1.1063 	  103.5320 	    5.0000 	   54.0000 	   25.1620
    1.1368 	  103.7067 	    5.0000 	   54.0000 	   25.4240
    1.0300 	  103.8853 	    5.0000 	   54.0000 	   25.6920
    0.9995 	  104.0700 	    5.0000 	   54.0000 	   25.9690
    1.0300 	  104.2480 	    5.0000 	   54.0000 	   26.2361
    1.0147 	  104.4253 	    5.0000 	   54.0000 	   26.5021
    0.9995 	  104.6047 	    5.0000 	   54.0000 	   26.7711
    0.9842 	  104.7807 	    5.0000 	   54.0000 	   27.0351
    0.9232 	  104.9587 	    5.0000 	   54.0000 	   27.3021
    1.0300 	  105.1367 	    5.0000 	   54.0000 	   27.5691
    1.0758 	  105.3173 	    5.0000 	   54.0000 	   27.8392
    1.0147 	  105.4973 	    5.0000 	   54.0000 	   28.1092
    0.9079 	  105.6733 	    5.0000 	   54.0000 	   28.3732
    0.6943 	  105.8533 	    5.0000 	   54.0000 	   28.6432
    1.0605 	  106.0387 	    5.0000 	   54.0000 	   28.9212
    1.0300 	  106.2293 	    5.0000 	   54.0000 	   29.2072
    0.7401 	  106.4160 	    5.0000 	   54.0000 	   29.4872
    1.0605 	  106.6047 	    5.0000 	   54.0000 	   29.7703
    1.0147 	  106.7980 	    5.0000 	   54.0000 	   30.0603
    0.9537 	  106.9907 	    5.0000 	   54.0000 	   30.3493
    1.0452 	  107.1833 	    5.0000 	   54.0000 	   30.6383
    1.0605 	  107.3660 	    5.0000 	   54.0000 	   30.9123
    1.0910 	  107.5567 	    5.0000 	   54.0000 	   31.1983
    0.9842 	  107.7500 	    5.0000 	   54.0000 	   31.4884
    0.9995 	  107.9347 	    5.0000 	   54.0000 	   31.7654
    0.7248 	  108.1147 	    5.0000 	   54.0000 	   32.0354
    0.8164 	  108.3040 	    5.0000 	   54.0000 	   32.3194
    0.9842 	  108.4807 	    5.0000 	   54.0000 	   32.5844
    0.9232 	  108.6653 	    5.0000 	   54.0000 	   32.8614
    0.8164 	  108.8507 	    5.0000 	   54.0000 	   33.1395
    0.8011 	  109.0273 	    5.0000 	   54.0000 	   33.4045
    0.8469 	  109.2100 	    5.0000 	   54.0000 	   33.6785
    0.8621 	  109.3907 	    5.0000 	   54.0000 	   33.9495
    0.9384 	  109.5887 	    5.0000 	   54.0000 	   34.2465
    0.8316 	  109.7760 	    5.0000 	   54.0000 	   34.5275
    0.6790 	  109.9600 	    5.0000 	   54.0000 	   34.8036
    0.9995 	  110.1453 	    5.0000 	   54.0000 	   35.0816
    0.8469 	  110.3413 	    5.0000 	   54.0000 	   35.3756
    0.8621 	  110.5327 	    5.0000 	   54.0000 	   35.6626
    0.9384 	  110.7153 	    5.0000 	   54.0000 	   35.9366
    0.9537 	  110.8947 	    5.0000 	   54.0000 	   36.2056
    1.0147 	  111.0733 	    5.0000 	   54.0000 	   36.4736
    0.7706 	  111.2653 	    5.0000 	   54.0000 	   36.7617
    0.8011 	  111.4580 	    5.0000 	   54.0000 	   37.0507
    0.7858 	  111.6540 	    5.0000 	   54.0000 	   37.3447
    0.8469 	  111.8460 	    5.0000 	   54.0000 	   37.6327
    0.8621 	  112.0280 	    5.0000 	   54.0000 	   37.9057
    0.8774 	  112.2200 	    5.0000 	   54.0000 	   38.1937
    0.5875 	  112.4107 	    5.0000 	   54.0000 	   38.4798
    0.7401 	  112.6047 	    5.0000 	   54.0000 	   38.7708
    0.8164 	  112.7913 	    5.0000 	   54.0000 	   39.0508
    0.8011 	  112.9827 	    5.0000 	   54.0000 	   39.3378
    0.6790 	  113.1653 	    5.0000 	   54.0000 	   39.6118
    0.7553 	  113.3580 	    5.0000 	   54.0000 	   39.9008
    0.6790 	  113.5493 	    5.0000 	   54.0000 	   40.1879
    0.9384 	  113.7433 	    5.0000 	   54.0000 	   40.4789
    0.6943 	  113.9380 	    5.0000 	   54.0000 	   40.7709
    0.8164 	  114.1173 	    5.0000 	   54.0000 	   41.0399
    0.7095 	  114.2993 	    5.0000 	   54.0000 	   41.3129
    0.6943 	  114.4833 	    5.0000 	   54.0000 	   41.5889
    0.8164 	  114.6707 	    5.0000 	   54.0000 	   41.8700
    0.8316 	  114.8653 	    5.0000 	   54.0000 	   42.1620
    0.8469 	  115.0493 	    5.0000 	   54.0000 	   42.4380
    0.6943 	  115.2420 	    5.0000 	   54.0000 	   42.7270
    0.8011 	  115.4320 	    5.0000 	   54.0000 	   43.0120
    0.6485 	  115.6207 	    5.0000 	   54.0000 	   43.2950
    0.7248 	  115.8033 	    5.0000 	   54.0000 	   43.5691
    0.6332 	  115.9987 	    5.0000 	   54.0000 	   43.8621
    0.8011 	  116.1980 	    5.0000 	   54.0000 	   44.1611
    0.9689 	  116.3900 	    5.0000 	   54.0000 	   44.4491
    0.8164 	  116.5780 	    5.0000 	   54.0000 	   44.7311
    0.4807 	  116.7700 	    5.0000 	   54.0000 	   45.0191
    0.7553 	  116.9587 	    5.0000 	   54.0000 	   45.3012
    0.8469 	  117.1447 	    5.0000 	   54.0000 	   45.5802
    0.6638 	  117.3333 	    5.0000 	   54.0000 	   45.8632
    0.6943 	  117.5353 	    5.0000 	   54.0000 	   46.1662
    0.7248 	  117.7293 	    5.0000 	   54.0000 	   46.4572
    0.7706 	  117.9187 	    5.0000 	   54.0000 	   46.7412
    0.8011 	  118.1100 	    5.0000 	   54.0000 	   47.0282
    0.5570 	  118.3127 	    5.0000 	   54.0000 	   47.3323
    0.7095 	  118.5040 	    5.0000 	   54.0000 	   47.6193
    0.8469 	  118.6953 	    5.0000 	   54.0000 	   47.9063
    0.8011 	  118.8867 	    5.0000 	   54.0000 	   48.1933
    0.7553 	  119.0860 	    5.0000 	   54.0000 	   48.4923
    0.6485 	  119.2813 	    5.0000 	   54.0000 	   48.7854
    0.3738 	  119.4767 	    5.0000 	   54.0000 	   49.0784
    0.7706 	  119.6780 	    5.0000 	   54.0000 	   49.3804
    0.8164 	  119.8727 	    5.0000 	   54.0000 	   49.6724
    0.6332 	  120.0620 	    5.0000 	   54.0000 	   49.9564
    0.7401 	  120.2493 	    5.0000 	   54.0000 	   50.2374
    0.6790 	  120.4447 	    5.0000 	   54.0000 	   50.5304
    0.8469 	  120.6433 	    5.0000 	   54.0000 	   50.8285
    0.9232 	  120.8300 	    5.0000 	   54.0000 	   51.1085
    0.7706 	  121.0220 	    5.0000 	   54.0000 	   51.3965
    0.7248 	  121.2093 	    5.0000 	   54.0000 	   51.6765
    0.6180 	  121.3067 	    5.0000 	   54.0000 	   51.8235