File: instron/independence/relaxation/bad_l15w3_40_30/b_l15w3_40_30_stop1min.txt
Thayer School of Engineering        Instron 4442 Mechanical Testing System
7/5/2018 1:30:55 AM

  Force (N)	Extension (mm)	Not Used	Not Used	Not Used	     Hour	    Minute	    Second
    0.4349 	    0.5120 	    1.0000 	   31.0000 	   20.9432
    0.4959 	    0.6900 	    1.0000 	   31.0000 	   21.2992
    0.4044 	    0.8700 	    1.0000 	   31.0000 	   21.6592
    0.4501 	    1.0045 	    1.0000 	   31.0000 	   21.9282
    0.3738 	    1.1650 	    1.0000 	   31.0000 	   22.2493
    0.5112 	    1.3365 	    1.0000 	   31.0000 	   22.5923
    0.3891 	    1.5065 	    1.0000 	   31.0000 	   22.9323
    0.2823 	    1.6315 	    1.0000 	   31.0000 	   23.1823
    0.3891 	    1.7665 	    1.0000 	   31.0000 	   23.4523
    0.5570 	    1.8840 	    1.0000 	   31.0000 	   23.6873
    0.3738 	    2.0115 	    1.0000 	   31.0000 	   23.9424
    0.4196 	    2.1225 	    1.0000 	   31.0000 	   24.1644
    0.4501 	    2.2385 	    1.0000 	   31.0000 	   24.3964
    0.4349 	    2.3520 	    1.0000 	   31.0000 	   24.6234
    0.3738 	    2.4645 	    1.0000 	   31.0000 	   24.8484
    0.3891 	    2.5785 	    1.0000 	   31.0000 	   25.0764
    0.3891 	    2.6900 	    1.0000 	   31.0000 	   25.2994
    0.4501 	    2.7970 	    1.0000 	   31.0000 	   25.5135
    0.4807 	    2.9040 	    1.0000 	   31.0000 	   25.7275
    0.1144 	    3.0135 	    1.0000 	   31.0000 	   25.9465
    0.4959 	    3.1225 	    1.0000 	   31.0000 	   26.1645
    0.5722 	    3.2350 	    1.0000 	   31.0000 	   26.3895
    0.6027 	    3.3450 	    1.0000 	   31.0000 	   26.6095
    0.5875 	    3.4565 	    1.0000 	   31.0000 	   26.8325
    0.4959 	    3.5685 	    1.0000 	   31.0000 	   27.0565
    0.4196 	    3.6810 	    1.0000 	   31.0000 	   27.2816
    0.4349 	    3.7945 	    1.0000 	   31.0000 	   27.5086
    0.4959 	    3.9055 	    1.0000 	   31.0000 	   27.7306
    0.4807 	    4.0150 	    1.0000 	   31.0000 	   27.9496
    0.4654 	    4.1280 	    1.0000 	   31.0000 	   28.1756
    0.4654 	    4.2390 	    1.0000 	   31.0000 	   28.3976
    0.4959 	    4.3470 	    1.0000 	   31.0000 	   28.6136
    0.5570 	    4.4580 	    1.0000 	   31.0000 	   28.8356
    0.4959 	    4.5680 	    1.0000 	   31.0000 	   29.0557
    0.6180 	    4.6770 	    1.0000 	   31.0000 	   29.2737
    0.4196 	    4.7855 	    1.0000 	   31.0000 	   29.4907
    0.5264 	    4.9025 	    1.0000 	   31.0000 	   29.7247
    0.5264 	    5.0160 	    1.0000 	   31.0000 	   29.9517
    0.5570 	    5.1280 	    1.0000 	   31.0000 	   30.1757
    0.4654 	    5.2340 	    1.0000 	   31.0000 	   30.3877
    0.5722 	    5.3390 	    1.0000 	   31.0000 	   30.5977
    0.6332 	    5.4480 	    1.0000 	   31.0000 	   30.8158
    0.5417 	    5.5600 	    1.0000 	   31.0000 	   31.0398
    0.4959 	    5.6755 	    1.0000 	   31.0000 	   31.2708
    0.4044 	    5.7930 	    1.0000 	   31.0000 	   31.5058
    0.6332 	    5.9070 	    1.0000 	   31.0000 	   31.7338
    0.5570 	    6.0070 	    1.0000 	   31.0000 	   31.9338
    0.4501 	    6.1220 	    1.0000 	   31.0000 	   32.1638
    0.3891 	    6.2360 	    1.0000 	   31.0000 	   32.3918
    0.2060 	    6.3520 	    1.0000 	   31.0000 	   32.6239
    0.3891 	    6.4690 	    1.0000 	   31.0000 	   32.8579
    0.2670 	    6.5785 	    1.0000 	   31.0000 	   33.0769
    0.4959 	    6.6900 	    1.0000 	   31.0000 	   33.2999
    0.5875 	    6.8015 	    1.0000 	   31.0000 	   33.5229
    0.5875 	    6.9185 	    1.0000 	   31.0000 	   33.7569
    0.4196 	    7.0315 	    1.0000 	   31.0000 	   33.9829
    0.5264 	    7.1485 	    1.0000 	   31.0000 	   34.2170
    0.5417 	    7.2620 	    1.0000 	   31.0000 	   34.4440
    0.7095 	    7.3755 	    1.0000 	   31.0000 	   34.6710
    0.6180 	    7.4930 	    1.0000 	   31.0000 	   34.9050
    0.5570 	    7.6050 	    1.0000 	   31.0000 	   35.1290
    0.6332 	    7.7195 	    1.0000 	   31.0000 	   35.3580
    0.1602 	    7.8355 	    1.0000 	   31.0000 	   35.5900
    0.6485 	    7.9530 	    1.0000 	   31.0000 	   35.8250
    0.3586 	    8.0705 	    1.0000 	   31.0000 	   36.0601
    0.6180 	    8.1860 	    1.0000 	   31.0000 	   36.2911
    0.2060 	    8.3045 	    1.0000 	   31.0000 	   36.5281
    0.6180 	    8.4205 	    1.0000 	   31.0000 	   36.7601
    0.4959 	    8.5375 	    1.0000 	   31.0000 	   36.9941
    0.6332 	    8.6555 	    1.0000 	   31.0000 	   37.2301
    0.5570 	    8.7710 	    1.0000 	   31.0000 	   37.4611
    0.6790 	    8.8880 	    1.0000 	   31.0000 	   37.6952
    0.5264 	    9.0040 	    1.0000 	   31.0000 	   37.9272
    0.5264 	    9.1210 	    1.0000 	   31.0000 	   38.1612
    0.7095 	    9.2400 	    1.0000 	   31.0000 	   38.3992
    0.6180 	    9.3580 	    1.0000 	   31.0000 	   38.6352
    0.6485 	    9.4740 	    1.0000 	   31.0000 	   38.8672
    0.5417 	    9.5780 	    1.0000 	   31.0000 	   39.0752
    0.5875 	    9.6860 	    1.0000 	   31.0000 	   39.2912
    0.6180 	    9.8000 	    1.0000 	   31.0000 	   39.5193
    0.4349 	    9.9215 	    1.0000 	   31.0000 	   39.7623
    0.6332 	   10.0385 	    1.0000 	   31.0000 	   39.9963
    0.5722 	   10.1490 	    1.0000 	   31.0000 	   40.2173
    0.4654 	   10.2530 	    1.0000 	   31.0000 	   40.4253
    0.6332 	   10.3645 	    1.0000 	   31.0000 	   40.6483
    0.5112 	   10.4800 	    1.0000 	   31.0000 	   40.8793
    0.5570 	   10.6010 	    1.0000 	   31.0000 	   41.1213
    0.6485 	   10.7230 	    1.0000 	   31.0000 	   41.3654
    0.7401 	   10.8405 	    1.0000 	   31.0000 	   41.6004
    0.6027 	   10.9490 	    1.0000 	   31.0000 	   41.8174
    0.6027 	   11.0615 	    1.0000 	   31.0000 	   42.0424
    0.7401 	   11.1675 	    1.0000 	   31.0000 	   42.2544
    0.5875 	   11.2855 	    1.0000 	   31.0000 	   42.4904
    0.8011 	   11.3990 	    1.0000 	   31.0000 	   42.7174
    0.6027 	   11.5185 	    1.0000 	   31.0000 	   42.9565
    0.7248 	   11.6395 	    1.0000 	   31.0000 	   43.1985
    0.6638 	   11.7595 	    1.0000 	   31.0000 	   43.4385
    0.8316 	   11.8695 	    1.0000 	   31.0000 	   43.6585
    0.7858 	   11.9865 	    1.0000 	   31.0000 	   43.8925
    0.6485 	   12.1090 	    1.0000 	   31.0000 	   44.1375
    0.6485 	   12.2315 	    1.0000 	   31.0000 	   44.3825
    0.7706 	   12.3580 	    1.0000 	   31.0000 	   44.6355
    0.6180 	   12.4785 	    1.0000 	   31.0000 	   44.8766
    0.6180 	   12.6035 	    1.0000 	   31.0000 	   45.1266
    0.7553 	   12.7260 	    1.0000 	   31.0000 	   45.3716
    0.6943 	   12.8450 	    1.0000 	   31.0000 	   45.6096
    0.3891 	   12.9665 	    1.0000 	   31.0000 	   45.8526
    0.6027 	   13.0935 	    1.0000 	   31.0000 	   46.1066
    0.6180 	   13.2160 	    1.0000 	   31.0000 	   46.3516
    0.7858 	   13.3390 	    1.0000 	   31.0000 	   46.5977
    0.7095 	   13.4635 	    1.0000 	   31.0000 	   46.8467
    0.6790 	   13.5860 	    1.0000 	   31.0000 	   47.0917
    0.6485 	   13.7010 	    1.0000 	   31.0000 	   47.3217
    0.5875 	   13.8295 	    1.0000 	   31.0000 	   47.5787
    0.7858 	   13.9625 	    1.0000 	   31.0000 	   47.8447
    0.6332 	   14.0835 	    1.0000 	   31.0000 	   48.0867
    0.6790 	   14.1970 	    1.0000 	   31.0000 	   48.3138
    0.9537 	   14.3260 	    1.0000 	   31.0000 	   48.5718
    0.6943 	   14.4425 	    1.0000 	   31.0000 	   48.8048
    0.6332 	   14.5675 	    1.0000 	   31.0000 	   49.0548
    0.6027 	   14.6915 	    1.0000 	   31.0000 	   49.3028
    0.6943 	   14.8185 	    1.0000 	   31.0000 	   49.5568
    0.6638 	   14.9450 	    1.0000 	   31.0000 	   49.8098
    0.5875 	   15.0710 	    1.0000 	   31.0000 	   50.0619
    0.6485 	   15.1915 	    1.0000 	   31.0000 	   50.3029
    0.7095 	   15.3055 	    1.0000 	   31.0000 	   50.5309
    0.4501 	   15.4265 	    1.0000 	   31.0000 	   50.7729
    0.8774 	   15.5515 	    1.0000 	   31.0000 	   51.0229
    0.6485 	   15.6690 	    1.0000 	   31.0000 	   51.2579
    0.6027 	   15.7900 	    1.0000 	   31.0000 	   51.4999
    0.6943 	   15.9120 	    1.0000 	   31.0000 	   51.7440
    0.6332 	   16.0255 	    1.0000 	   31.0000 	   51.9710
    0.4196 	   16.1410 	    1.0000 	   31.0000 	   52.2020
    0.6790 	   16.2550 	    1.0000 	   31.0000 	   52.4290
    0.8621 	   16.3740 	    1.0000 	   31.0000 	   52.6670
    0.6943 	   16.5005 	    1.0000 	   31.0000 	   52.9200
    0.8316 	   16.6295 	    1.0000 	   31.0000 	   53.1780
    0.8469 	   16.7460 	    1.0000 	   31.0000 	   53.4110
    0.8469 	   16.8705 	    1.0000 	   31.0000 	   53.6601
    0.9232 	   16.9900 	    1.0000 	   31.0000 	   53.8991
    0.7248 	   17.1070 	    1.0000 	   31.0000 	   54.1331
    0.7553 	   17.2230 	    1.0000 	   31.0000 	   54.3651
    0.9689 	   17.3460 	    1.0000 	   31.0000 	   54.6111
    0.6943 	   17.4715 	    1.0000 	   31.0000 	   54.8621
    0.8011 	   17.6015 	    1.0000 	   31.0000 	   55.1221
    0.7553 	   17.7275 	    1.0000 	   31.0000 	   55.3742
    0.8164 	   17.8470 	    1.0000 	   31.0000 	   55.6132
    0.7858 	   17.9710 	    1.0000 	   31.0000 	   55.8612
    0.9384 	   18.0885 	    1.0000 	   31.0000 	   56.0962
    0.8011 	   18.2045 	    1.0000 	   31.0000 	   56.3282
    0.7858 	   18.3330 	    1.0000 	   31.0000 	   56.5852
    0.6943 	   18.4585 	    1.0000 	   31.0000 	   56.8362
    0.9384 	   18.5900 	    1.0000 	   31.0000 	   57.0993
    0.8774 	   18.7190 	    1.0000 	   31.0000 	   57.3573
    0.8011 	   18.8460 	    1.0000 	   31.0000 	   57.6113
    0.7248 	   18.9765 	    1.0000 	   31.0000 	   57.8723
    0.8469 	   19.0950 	    1.0000 	   31.0000 	   58.1093
    0.8011 	   19.2175 	    1.0000 	   31.0000 	   58.3543
    0.8316 	   19.3405 	    1.0000 	   31.0000 	   58.6003
    0.8011 	   19.4710 	    1.0000 	   31.0000 	   58.8614
    0.9079 	   19.5930 	    1.0000 	   31.0000 	   59.1054
    0.6332 	   19.7255 	    1.0000 	   31.0000 	   59.3704
    0.8927 	   19.8555 	    1.0000 	   31.0000 	   59.6304
    0.9689 	   19.9750 	    1.0000 	   31.0000 	   59.8694
    0.7858 	   20.0945 	    1.0000 	   32.0000 	    0.1084
    0.8621 	   20.2150 	    1.0000 	   32.0000 	    0.3494
    0.8621 	   20.3470 	    1.0000 	   32.0000 	    0.6135
    0.9079 	   20.4805 	    1.0000 	   32.0000 	    0.8805
    0.7553 	   20.6135 	    1.0000 	   32.0000 	    1.1465
    0.9689 	   20.7445 	    1.0000 	   32.0000 	    1.4085
    0.6943 	   20.8780 	    1.0000 	   32.0000 	    1.6755
    0.7706 	   21.0090 	    1.0000 	   32.0000 	    1.9375
    0.9232 	   21.1420 	    1.0000 	   32.0000 	    2.2036
    0.8011 	   21.2755 	    1.0000 	   32.0000 	    2.4706
    0.9079 	   21.4070 	    1.0000 	   32.0000 	    2.7336
    0.8469 	   21.5360 	    1.0000 	   32.0000 	    2.9916
    1.0147 	   21.6730 	    1.0000 	   32.0000 	    3.2656
    0.8927 	   21.7910 	    1.0000 	   32.0000 	    3.5016
    0.9842 	   21.9100 	    1.0000 	   32.0000 	    3.7396
    0.9232 	   22.0300 	    1.0000 	   32.0000 	    3.9797
    1.0605 	   22.1510 	    1.0000 	   32.0000 	    4.2217
    0.9995 	   22.2835 	    1.0000 	   32.0000 	    4.4867
    0.8927 	   22.4180 	    1.0000 	   32.0000 	    4.7557
    0.8927 	   22.5550 	    1.0000 	   32.0000 	    5.0297
    0.8927 	   22.6865 	    1.0000 	   32.0000 	    5.2927
    0.8621 	   22.8230 	    1.0000 	   32.0000 	    5.5657
    0.9995 	   22.9635 	    1.0000 	   32.0000 	    5.8468
    0.9079 	   23.0980 	    1.0000 	   32.0000 	    6.1158
    0.9232 	   23.2325 	    1.0000 	   32.0000 	    6.3848
    0.9995 	   23.3665 	    1.0000 	   32.0000 	    6.6528
    0.9995 	   23.5020 	    1.0000 	   32.0000 	    6.9238
    1.0605 	   23.6405 	    1.0000 	   32.0000 	    7.2008
    0.9079 	   23.7790 	    1.0000 	   32.0000 	    7.4779
    0.7553 	   23.9165 	    1.0000 	   32.0000 	    7.7529
    0.9079 	   24.0525 	    1.0000 	   32.0000 	    8.0249
    0.9842 	   24.1855 	    1.0000 	   32.0000 	    8.2909
    0.8927 	   24.3205 	    1.0000 	   32.0000 	    8.5609
    0.9079 	   24.4550 	    1.0000 	   32.0000 	    8.8299
    1.0452 	   24.5905 	    1.0000 	   32.0000 	    9.1009
    1.0300 	   24.7275 	    1.0000 	   32.0000 	    9.3750
    0.9995 	   24.8695 	    1.0000 	   32.0000 	    9.6590
    1.0605 	   25.0060 	    1.0000 	   32.0000 	    9.9310
    1.1063 	   25.1385 	    1.0000 	   32.0000 	   10.1960
    1.0758 	   25.2745 	    1.0000 	   32.0000 	   10.4680
    1.0758 	   25.4065 	    1.0000 	   32.0000 	   10.7320
    0.9537 	   25.5415 	    1.0000 	   32.0000 	   11.0021
    1.0452 	   25.6770 	    1.0000 	   32.0000 	   11.2731
    1.1368 	   25.8135 	    1.0000 	   32.0000 	   11.5461
    1.0300 	   25.9495 	    1.0000 	   32.0000 	   11.8181
    1.1978 	   26.0890 	    1.0000 	   32.0000 	   12.0971
    1.0758 	   26.2245 	    1.0000 	   32.0000 	   12.3681
    1.1063 	   26.3585 	    1.0000 	   32.0000 	   12.6362
    1.1215 	   26.4950 	    1.0000 	   32.0000 	   12.9092
    1.1978 	   26.6280 	    1.0000 	   32.0000 	   13.1752
    1.1063 	   26.7600 	    1.0000 	   32.0000 	   13.4392
    1.1521 	   26.8955 	    1.0000 	   32.0000 	   13.7102
    1.2741 	   27.0330 	    1.0000 	   32.0000 	   13.9852
    1.2131 	   27.1690 	    1.0000 	   32.0000 	   14.2572
    1.1521 	   27.2985 	    1.0000 	   32.0000 	   14.5163
    1.0300 	   27.4315 	    1.0000 	   32.0000 	   14.7823
    1.1673 	   27.5685 	    1.0000 	   32.0000 	   15.0563
    0.9842 	   27.7045 	    1.0000 	   32.0000 	   15.3283
    1.2894 	   27.8435 	    1.0000 	   32.0000 	   15.6063
    1.1368 	   27.9855 	    1.0000 	   32.0000 	   15.8903
    1.1978 	   28.1230 	    1.0000 	   32.0000 	   16.1654
    1.1978 	   28.2530 	    1.0000 	   32.0000 	   16.4254
    0.9384 	   28.3895 	    1.0000 	   32.0000 	   16.6984
    1.3352 	   28.5270 	    1.0000 	   32.0000 	   16.9734
    1.4115 	   28.6650 	    1.0000 	   32.0000 	   17.2494
    1.1978 	   28.7940 	    1.0000 	   32.0000 	   17.5074
    1.2131 	   28.9295 	    1.0000 	   32.0000 	   17.7784
    1.2894 	   29.0695 	    1.0000 	   32.0000 	   18.0585
    1.1978 	   29.2080 	    1.0000 	   32.0000 	   18.3355
    1.3962 	   29.3405 	    1.0000 	   32.0000 	   18.6005
    1.2741 	   29.4740 	    1.0000 	   32.0000 	   18.8675
    1.3352 	   29.6005 	    1.0000 	   32.0000 	   19.1205
    1.1978 	   29.7290 	    1.0000 	   32.0000 	   19.3775
    1.3962 	   29.8695 	    1.0000 	   32.0000 	   19.6586
    1.4420 	   30.0125 	    1.0000 	   32.0000 	   19.9446
    1.2894 	   30.1535 	    1.0000 	   32.0000 	   20.2266
    1.2436 	   30.2880 	    1.0000 	   32.0000 	   20.4956
    1.3657 	   30.4255 	    1.0000 	   32.0000 	   20.7706
    1.5335 	   30.5640 	    1.0000 	   32.0000 	   21.0476
    1.3657 	   30.7020 	    1.0000 	   32.0000 	   21.3236
    1.3504 	   30.8375 	    1.0000 	   32.0000 	   21.5947
    1.4878 	   30.9760 	    1.0000 	   32.0000 	   21.8717
    1.4420 	   31.1160 	    1.0000 	   32.0000 	   22.1517
    1.4115 	   31.2535 	    1.0000 	   32.0000 	   22.4267
    1.3657 	   31.3920 	    1.0000 	   32.0000 	   22.7037
    1.3199 	   31.5335 	    1.0000 	   32.0000 	   22.9867
    1.4115 	   31.6710 	    1.0000 	   32.0000 	   23.2618
    1.4572 	   31.8095 	    1.0000 	   32.0000 	   23.5388
    1.3809 	   31.9500 	    1.0000 	   32.0000 	   23.8198
    1.5793 	   32.0905 	    1.0000 	   32.0000 	   24.1008
    1.4572 	   32.2335 	    1.0000 	   32.0000 	   24.3868
    1.3352 	   32.3740 	    1.0000 	   32.0000 	   24.6678
    1.1978 	   32.5130 	    1.0000 	   32.0000 	   24.9459
    1.1673 	   32.6565 	    1.0000 	   32.0000 	   25.2329
    1.5030 	   32.7960 	    1.0000 	   32.0000 	   25.5119
    1.5793 	   32.9355 	    1.0000 	   32.0000 	   25.7909
    1.5793 	   33.0755 	    1.0000 	   32.0000 	   26.0709
    1.5183 	   33.2110 	    1.0000 	   32.0000 	   26.3419
    1.5030 	   33.3510 	    1.0000 	   32.0000 	   26.6220
    1.7166 	   33.4910 	    1.0000 	   32.0000 	   26.9020
    1.5488 	   33.6330 	    1.0000 	   32.0000 	   27.1860
    1.5793 	   33.7745 	    1.0000 	   32.0000 	   27.4680
    1.6098 	   33.9145 	    1.0000 	   32.0000 	   27.7480
    1.6098 	   34.0510 	    1.0000 	   32.0000 	   28.0210
    1.6251 	   34.1790 	    1.0000 	   32.0000 	   28.2770
    1.6556 	   34.3070 	    1.0000 	   32.0000 	   28.5331
    1.6709 	   34.4335 	    1.0000 	   32.0000 	   28.7861
    1.7777 	   34.5740 	    1.0000 	   32.0000 	   29.0671
    1.6251 	   34.7155 	    1.0000 	   32.0000 	   29.3501
    1.6709 	   34.8550 	    1.0000 	   32.0000 	   29.6291
    1.7319 	   34.9945 	    1.0000 	   32.0000 	   29.9081
    1.7777 	   35.1345 	    1.0000 	   32.0000 	   30.1882
    1.6403 	   35.2610 	    1.0000 	   32.0000 	   30.4412
    1.5640 	   35.3905 	    1.0000 	   32.0000 	   30.7002
    1.6098 	   35.5185 	    1.0000 	   32.0000 	   30.9562
    1.7319 	   35.6470 	    1.0000 	   32.0000 	   31.2132
    1.7319 	   35.7820 	    1.0000 	   32.0000 	   31.4832
    1.8082 	   35.9135 	    1.0000 	   32.0000 	   31.7462
    1.8082 	   36.0500 	    1.0000 	   32.0000 	   32.0193
    2.0218 	   36.1775 	    1.0000 	   32.0000 	   32.2743
    1.7929 	   36.3140 	    1.0000 	   32.0000 	   32.5473
    1.8235 	   36.4550 	    1.0000 	   32.0000 	   32.8293
    1.9455 	   36.5875 	    1.0000 	   32.0000 	   33.0943
    1.9608 	   36.7255 	    1.0000 	   32.0000 	   33.3703
    1.5640 	   36.8695 	    1.0000 	   32.0000 	   33.6584
    1.8845 	   37.0100 	    1.0000 	   32.0000 	   33.9394
    1.9455 	   37.1440 	    1.0000 	   32.0000 	   34.2074
    1.6251 	   37.2770 	    1.0000 	   32.0000 	   34.4734
    2.0066 	   37.4085 	    1.0000 	   32.0000 	   34.7364
    1.9760 	   37.5505 	    1.0000 	   32.0000 	   35.0204
    1.8540 	   37.6885 	    1.0000 	   32.0000 	   35.2964
    2.0676 	   37.8180 	    1.0000 	   32.0000 	   35.5555
    1.8997 	   37.9505 	    1.0000 	   32.0000 	   35.8205
    2.0829 	   38.0825 	    1.0000 	   32.0000 	   36.0845
    2.0829 	   38.2225 	    1.0000 	   32.0000 	   36.3645
    2.0829 	   38.3655 	    1.0000 	   32.0000 	   36.6505
    2.0371 	   38.5030 	    1.0000 	   32.0000 	   36.9255
    2.1897 	   38.6385 	    1.0000 	   32.0000 	   37.1966
    2.1592 	   38.7825 	    1.0000 	   32.0000 	   37.4846
    2.0676 	   38.9335 	    1.0000 	   32.0000 	   37.7866
    1.8235 	   39.0765 	    1.0000 	   32.0000 	   38.0726
    1.8997 	   39.2190 	    1.0000 	   32.0000 	   38.3576
    2.0981 	   39.3625 	    1.0000 	   32.0000 	   38.6446
    2.2965 	   39.5030 	    1.0000 	   32.0000 	   38.9257
    2.0829 	   39.6430 	    1.0000 	   32.0000 	   39.2057
    2.0981 	   39.7720 	    1.0000 	   32.0000 	   39.4637
    2.2660 	   39.9160 	    1.0000 	   32.0000 	   39.7517
    2.0676 	   40.0580 	    1.0000 	   32.0000 	   40.0357
    2.0676 	   40.1865 	    1.0000 	   32.0000 	   40.2927
    2.2507 	   40.3255 	    1.0000 	   32.0000 	   40.5707
    2.0218 	   40.4595 	    1.0000 	   32.0000 	   40.8388
    2.2202 	   40.5880 	    1.0000 	   32.0000 	   41.0958
    2.0676 	   40.7185 	    1.0000 	   32.0000 	   41.3568
    2.3270 	   40.8460 	    1.0000 	   32.0000 	   41.6118
    2.0676 	   40.9795 	    1.0000 	   32.0000 	   41.8788
    1.8387 	   41.1215 	    1.0000 	   32.0000 	   42.1628
    2.1592 	   41.2640 	    1.0000 	   32.0000 	   42.4479
    1.8387 	   41.4065 	    1.0000 	   32.0000 	   42.7329
    2.0676 	   41.5495 	    1.0000 	   32.0000 	   43.0189
    1.7624 	   41.6945 	    1.0000 	   32.0000 	   43.3079
    2.2049 	   41.8255 	    1.0000 	   32.0000 	   43.5709
    2.2049 	   41.9630 	    1.0000 	   32.0000 	   43.8459
    2.1134 	   42.1055 	    1.0000 	   32.0000 	   44.1310
    2.0981 	   42.2380 	    1.0000 	   32.0000 	   44.3960
    2.1439 	   42.3705 	    1.0000 	   32.0000 	   44.6610
    2.1286 	   42.5015 	    1.0000 	   32.0000 	   44.9220
    2.1134 	   42.6325 	    1.0000 	   32.0000 	   45.1840
    2.1897 	   42.7645 	    1.0000 	   32.0000 	   45.4480
    2.1439 	   42.8965 	    1.0000 	   32.0000 	   45.7120
    2.0523 	   43.0280 	    1.0000 	   32.0000 	   45.9751
    2.0981 	   43.1615 	    1.0000 	   32.0000 	   46.2421
    2.0523 	   43.3065 	    1.0000 	   32.0000 	   46.5321
    2.1134 	   43.4505 	    1.0000 	   32.0000 	   46.8201
    2.2049 	   43.5910 	    1.0000 	   32.0000 	   47.1011
    1.9913 	   43.7225 	    1.0000 	   32.0000 	   47.3641
    2.0829 	   43.8595 	    1.0000 	   32.0000 	   47.6382
    2.1439 	   44.0030 	    1.0000 	   32.0000 	   47.9252
    2.0981 	   44.1495 	    1.0000 	   32.0000 	   48.2182
    1.8997 	   44.2955 	    1.0000 	   32.0000 	   48.5102
    2.1134 	   44.4430 	    1.0000 	   32.0000 	   48.8052
    2.1134 	   44.5900 	    1.0000 	   32.0000 	   49.0992
    2.1592 	   44.7370 	    1.0000 	   32.0000 	   49.3933
    2.0829 	   44.8910 	    1.0000 	   32.0000 	   49.7013
    2.0523 	   45.0355 	    1.0000 	   32.0000 	   49.9903
    1.9608 	   45.1845 	    1.0000 	   32.0000 	   50.2883
    2.0829 	   45.3250 	    1.0000 	   32.0000 	   50.5693
    2.0981 	   45.4635 	    1.0000 	   32.0000 	   50.8463
    2.3575 	   45.6145 	    1.0000 	   32.0000 	   51.1484
    2.0371 	   45.7545 	    1.0000 	   32.0000 	   51.4284
    2.1897 	   45.9020 	    1.0000 	   32.0000 	   51.7234
    2.0066 	   46.0365 	    1.0000 	   32.0000 	   51.9924
    2.1134 	   46.1735 	    1.0000 	   32.0000 	   52.2664
    2.0829 	   46.3245 	    1.0000 	   32.0000 	   52.5684
    1.8387 	   46.4735 	    1.0000 	   32.0000 	   52.8665
    2.0371 	   46.6105 	    1.0000 	   32.0000 	   53.1405
    2.0829 	   46.7515 	    1.0000 	   32.0000 	   53.4225
    1.8387 	   46.8905 	    1.0000 	   32.0000 	   53.7005
    1.7929 	   47.0290 	    1.0000 	   32.0000 	   53.9775
    2.0829 	   47.1785 	    1.0000 	   32.0000 	   54.2765
    1.9608 	   47.3255 	    1.0000 	   32.0000 	   54.5705
    2.0981 	   47.4605 	    1.0000 	   32.0000 	   54.8406
    1.8540 	   47.6045 	    1.0000 	   32.0000 	   55.1286
    2.0371 	   47.7550 	    1.0000 	   32.0000 	   55.4296
    1.9760 	   47.9110 	    1.0000 	   32.0000 	   55.7416
    2.1286 	   48.0495 	    1.0000 	   32.0000 	   56.0186
    1.9913 	   48.1895 	    1.0000 	   32.0000 	   56.2986
    1.9760 	   48.3405 	    1.0000 	   32.0000 	   56.6007
    2.0371 	   48.4910 	    1.0000 	   32.0000 	   56.9017
    2.1744 	   48.6270 	    1.0000 	   32.0000 	   57.1737
    2.1134 	   48.7620 	    1.0000 	   32.0000 	   57.4437
    2.1439 	   48.9145 	    1.0000 	   32.0000 	   57.7487
    1.9760 	   49.0675 	    1.0000 	   32.0000 	   58.0547
    2.0066 	   49.2020 	    1.0000 	   32.0000 	   58.3238
    2.2202 	   49.3375 	    1.0000 	   32.0000 	   58.5948
    2.1897 	   49.4795 	    1.0000 	   32.0000 	   58.8788
    2.0523 	   49.6200 	    1.0000 	   32.0000 	   59.1598
    2.1592 	   49.7580 	    1.0000 	   32.0000 	   59.4358
    1.8845 	   49.8975 	    1.0000 	   32.0000 	   59.7148
    2.1439 	   50.0480 	    1.0000 	   33.0000 	    0.0159
    2.0523 	   50.2015 	    1.0000 	   33.0000 	    0.3229
    2.1592 	   50.3405 	    1.0000 	   33.0000 	    0.6009
    2.0523 	   50.4820 	    1.0000 	   33.0000 	    0.8839
    2.0218 	   50.6355 	    1.0000 	   33.0000 	    1.1909
    2.0218 	   50.7835 	    1.0000 	   33.0000 	    1.4869
    1.9913 	   50.9215 	    1.0000 	   33.0000 	    1.7630
    1.9303 	   51.0755 	    1.0000 	   33.0000 	    2.0710
    2.1744 	   51.2125 	    1.0000 	   33.0000 	    2.3440
    1.9455 	   51.3520 	    1.0000 	   33.0000 	    2.6230
    2.0066 	   51.5005 	    1.0000 	   33.0000 	    2.9200
    1.9913 	   51.6535 	    1.0000 	   33.0000 	    3.2260
    2.1897 	   51.7990 	    1.0000 	   33.0000 	    3.5171
    1.9608 	   51.9570 	    1.0000 	   33.0000 	    3.8331
    2.0981 	   52.1060 	    1.0000 	   33.0000 	    4.1311
    2.0371 	   52.2435 	    1.0000 	   33.0000 	    4.4061
    2.0218 	   52.3840 	    1.0000 	   33.0000 	    4.6861
    2.0066 	   52.5255 	    1.0000 	   33.0000 	    4.9701
    2.0218 	   52.6655 	    1.0000 	   33.0000 	    5.2502
    2.1286 	   52.8175 	    1.0000 	   33.0000 	    5.5542
    1.8387 	   52.9605 	    1.0000 	   33.0000 	    5.8402
    2.0371 	   53.1050 	    1.0000 	   33.0000 	    6.1292
    1.7319 	   53.2575 	    1.0000 	   33.0000 	    6.4342
    2.1286 	   53.4100 	    1.0000 	   33.0000 	    6.7392
    1.9913 	   53.5495 	    1.0000 	   33.0000 	    7.0183
    2.0066 	   53.6960 	    1.0000 	   33.0000 	    7.3113
    1.9455 	   53.8455 	    1.0000 	   33.0000 	    7.6103
    2.0523 	   53.9900 	    1.0000 	   33.0000 	    7.8993
    2.2202 	   54.1315 	    1.0000 	   33.0000 	    8.1823
    2.1134 	   54.2705 	    1.0000 	   33.0000 	    8.4603
    2.0371 	   54.4200 	    1.0000 	   33.0000 	    8.7594
    1.9608 	   54.5765 	    1.0000 	   33.0000 	    9.0724
    2.0676 	   54.7265 	    1.0000 	   33.0000 	    9.3724
    1.9913 	   54.8695 	    1.0000 	   33.0000 	    9.6584
    2.0523 	   55.0210 	    1.0000 	   33.0000 	    9.9614
    2.0829 	   55.1685 	    1.0000 	   33.0000 	   10.2564
    2.0523 	   55.3150 	    1.0000 	   33.0000 	   10.5495
    2.1439 	   55.4635 	    1.0000 	   33.0000 	   10.8465
    2.1134 	   55.6080 	    1.0000 	   33.0000 	   11.1355
    2.0218 	   55.7505 	    1.0000 	   33.0000 	   11.4205
    2.2660 	   55.8940 	    1.0000 	   33.0000 	   11.7075
    2.0066 	   56.0380 	    1.0000 	   33.0000 	   11.9955
    1.7319 	   56.1820 	    1.0000 	   33.0000 	   12.2836
    2.1439 	   56.3295 	    1.0000 	   33.0000 	   12.5786
    2.0676 	   56.4860 	    1.0000 	   33.0000 	   12.8916
    2.1134 	   56.6400 	    1.0000 	   33.0000 	   13.1996
    2.0066 	   56.7980 	    1.0000 	   33.0000 	   13.5156
    2.1592 	   56.9600 	    1.0000 	   33.0000 	   13.8397
    1.9760 	   57.1190 	    1.0000 	   33.0000 	   14.1577
    1.9913 	   57.2750 	    1.0000 	   33.0000 	   14.4697
    1.9608 	   57.4185 	    1.0000 	   33.0000 	   14.7567
    2.0218 	   57.5640 	    1.0000 	   33.0000 	   15.0477
    2.1286 	   57.7180 	    1.0000 	   33.0000 	   15.3557
    1.9608 	   57.8770 	    1.0000 	   33.0000 	   15.6738
    2.1286 	   58.0355 	    1.0000 	   33.0000 	   15.9908
    1.9913 	   58.1895 	    1.0000 	   33.0000 	   16.2988
    1.9913 	   58.3480 	    1.0000 	   33.0000 	   16.6158
    2.0676 	   58.5000 	    1.0000 	   33.0000 	   16.9198
    2.0829 	   58.6450 	    1.0000 	   33.0000 	   17.2098
    2.1134 	   58.7910 	    1.0000 	   33.0000 	   17.5019
    2.0981 	   58.9365 	    1.0000 	   33.0000 	   17.7929
    2.1439 	   59.0875 	    1.0000 	   33.0000 	   18.0949
    2.2049 	   59.2490 	    1.0000 	   33.0000 	   18.4179
    1.9608 	   59.4085 	    1.0000 	   33.0000 	   18.7369
    1.9150 	   59.5590 	    1.0000 	   33.0000 	   19.0379
    2.2812 	   59.7075 	    1.0000 	   33.0000 	   19.3350
    1.7929 	   59.8590 	    1.0000 	   33.0000 	   19.6380
    2.0371 	   60.0065 	    1.0000 	   33.0000 	   19.9320
    1.6861 	   60.1545 	    1.0000 	   33.0000 	   20.2280
    2.0981 	   60.3040 	    1.0000 	   33.0000 	   20.5270
    1.9913 	   60.4505 	    1.0000 	   33.0000 	   20.8200
    1.8997 	   60.6035 	    1.0000 	   33.0000 	   21.1261
    2.0066 	   60.7590 	    1.0000 	   33.0000 	   21.4371
    2.1592 	   60.9175 	    1.0000 	   33.0000 	   21.7541
    1.9150 	   61.0790 	    1.0000 	   33.0000 	   22.0771
    1.8997 	   61.2410 	    1.0000 	   33.0000 	   22.4011
    2.0371 	   61.3930 	    1.0000 	   33.0000 	   22.7052
    1.9455 	   61.5405 	    1.0000 	   33.0000 	   23.0002
    1.9913 	   61.7000 	    1.0000 	   33.0000 	   23.3192
    1.9760 	   61.8505 	    1.0000 	   33.0000 	   23.6202
    1.8082 	   61.9990 	    1.0000 	   33.0000 	   23.9172
    2.0218 	   62.1595 	    1.0000 	   33.0000 	   24.2382
    1.8387 	   62.3195 	    1.0000 	   33.0000 	   24.5583
    1.9760 	   62.4685 	    1.0000 	   33.0000 	   24.8563
    2.0829 	   62.6190 	    1.0000 	   33.0000 	   25.1573
    2.0523 	   62.7680 	    1.0000 	   33.0000 	   25.4553
    2.0676 	   62.9170 	    1.0000 	   33.0000 	   25.7533
    1.9455 	   63.0765 	    1.0000 	   33.0000 	   26.0723
    1.8387 	   63.2350 	    1.0000 	   33.0000 	   26.3894
    2.0676 	   63.3970 	    1.0000 	   33.0000 	   26.7134
    2.0371 	   63.5470 	    1.0000 	   33.0000 	   27.0134
    1.8387 	   63.7100 	    1.0000 	   33.0000 	   27.3394
    2.0829 	   63.8740 	    1.0000 	   33.0000 	   27.6674
    1.7929 	   64.0270 	    1.0000 	   33.0000 	   27.9735
    2.0523 	   64.1895 	    1.0000 	   33.0000 	   28.2985
    1.9913 	   64.3545 	    1.0000 	   33.0000 	   28.6285
    2.0523 	   64.5170 	    1.0000 	   33.0000 	   28.9535
    2.1286 	   64.6745 	    1.0000 	   33.0000 	   29.2685
    1.9913 	   64.8250 	    1.0000 	   33.0000 	   29.5695
    1.9760 	   64.9770 	    1.0000 	   33.0000 	   29.8736
    2.0371 	   65.1345 	    1.0000 	   33.0000 	   30.1886
    2.0981 	   65.2855 	    1.0000 	   33.0000 	   30.4906
    2.0523 	   65.4375 	    1.0000 	   33.0000 	   30.7946
    1.8692 	   65.6000 	    1.0000 	   33.0000 	   31.1196
    1.9913 	   65.7515 	    1.0000 	   33.0000 	   31.4227
    2.0218 	   65.9155 	    1.0000 	   33.0000 	   31.7507
    1.9608 	   66.0810 	    1.0000 	   33.0000 	   32.0817
    2.0829 	   66.2330 	    1.0000 	   33.0000 	   32.3857
    2.0218 	   66.3890 	    1.0000 	   33.0000 	   32.6977
    1.9608 	   66.5400 	    1.0000 	   33.0000 	   32.9997
    1.9913 	   66.6950 	    1.0000 	   33.0000 	   33.3098
    2.0218 	   66.8580 	    1.0000 	   33.0000 	   33.6358
    2.0523 	   67.0205 	    1.0000 	   33.0000 	   33.9608
    2.0066 	   67.1720 	    1.0000 	   33.0000 	   34.2638
    2.1134 	   67.3275 	    1.0000 	   33.0000 	   34.5748
    1.9760 	   67.4895 	    1.0000 	   33.0000 	   34.8989
    1.8997 	   67.6490 	    1.0000 	   33.0000 	   35.2179
    2.0523 	   67.8075 	    1.0000 	   33.0000 	   35.5349
    2.0218 	   67.9645 	    1.0000 	   33.0000 	   35.8489
    2.0523 	   68.1380 	    1.0000 	   33.0000 	   36.1959
    2.0829 	   68.3030 	    1.0000 	   33.0000 	   36.5259
    2.0218 	   68.4560 	    1.0000 	   33.0000 	   36.8320
    2.0829 	   68.6085 	    1.0000 	   33.0000 	   37.1370
    2.1286 	   68.7750 	    1.0000 	   33.0000 	   37.4690
    1.8997 	   68.9360 	    1.0000 	   33.0000 	   37.7910
    2.1134 	   69.0915 	    1.0000 	   33.0000 	   38.1020
    1.7624 	   69.2465 	    1.0000 	   33.0000 	   38.4121
    2.0066 	   69.4005 	    1.0000 	   33.0000 	   38.7201
    1.8387 	   69.5540 	    1.0000 	   33.0000 	   39.0271
    2.0981 	   69.7090 	    1.0000 	   33.0000 	   39.3371
    1.9913 	   69.8755 	    1.0000 	   33.0000 	   39.6701
    2.0218 	   70.0360 	    1.0000 	   33.0000 	   39.9911
    2.0066 	   70.1940 	    1.0000 	   33.0000 	   40.3072
    1.8692 	   70.3640 	    1.0000 	   33.0000 	   40.6472
    1.8692 	   70.5220 	    1.0000 	   33.0000 	   40.9632
    1.8845 	   70.6820 	    1.0000 	   33.0000 	   41.2832
    1.9608 	   70.8425 	    1.0000 	   33.0000 	   41.6042
    2.0371 	   71.0100 	    1.0000 	   33.0000 	   41.9393
    1.7777 	   71.1735 	    1.0000 	   33.0000 	   42.2663
    2.0371 	   71.3300 	    1.0000 	   33.0000 	   42.5793
    2.0371 	   71.4855 	    1.0000 	   33.0000 	   42.8903
    2.0371 	   71.6485 	    1.0000 	   33.0000 	   43.2163
    2.0829 	   71.8175 	    1.0000 	   33.0000 	   43.5544
    1.9455 	   71.9800 	    1.0000 	   33.0000 	   43.8794
    2.0676 	   72.1450 	    1.0000 	   33.0000 	   44.2094
    1.8540 	   72.3120 	    1.0000 	   33.0000 	   44.5434
    1.7929 	   72.4760 	    1.0000 	   33.0000 	   44.8714
    1.7166 	   72.6310 	    1.0000 	   33.0000 	   45.1814
    1.5946 	   72.7870 	    1.0000 	   33.0000 	   45.4935
    1.6403 	   72.9665 	    1.0000 	   33.0000 	   45.8525
    1.6556 	   73.1195 	    1.0000 	   33.0000 	   46.1585
    1.5640 	   73.2780 	    1.0000 	   33.0000 	   46.4755
    1.4878 	   73.4405 	    1.0000 	   33.0000 	   46.8005
    1.4725 	   73.5990 	    1.0000 	   33.0000 	   47.1176
    1.6403 	   73.7680 	    1.0000 	   33.0000 	   47.4556
    1.5488 	   73.9355 	    1.0000 	   33.0000 	   47.7906
    1.5640 	   74.0905 	    1.0000 	   33.0000 	   48.1006
    1.4878 	   74.2515 	    1.0000 	   33.0000 	   48.4226
    1.5335 	   74.4195 	    1.0000 	   33.0000 	   48.7586
    1.4725 	   74.5800 	    1.0000 	   33.0000 	   49.0797
    1.3809 	   74.7450 	    1.0000 	   33.0000 	   49.4097
    1.3962 	   74.9060 	    1.0000 	   33.0000 	   49.7317
    1.3046 	   75.0635 	    1.0000 	   33.0000 	   50.0467
    1.3809 	   75.2250 	    1.0000 	   33.0000 	   50.3697
    1.3352 	   75.3980 	    1.0000 	   33.0000 	   50.7158
    1.0300 	   75.5580 	    1.0000 	   33.0000 	   51.0358
    1.3504 	   75.7265 	    1.0000 	   33.0000 	   51.3728
    1.2131 	   75.8935 	    1.0000 	   33.0000 	   51.7068
    1.2436 	   76.0610 	    1.0000 	   33.0000 	   52.0418
    1.1673 	   76.2230 	    1.0000 	   33.0000 	   52.3659
    1.4115 	   76.4270 	    1.0000 	   33.0000 	   52.7739
    1.1368 	   76.5860 	    1.0000 	   33.0000 	   53.0919
    1.2436 	   76.7550 	    1.0000 	   33.0000 	   53.4299
    1.2284 	   76.9255 	    1.0000 	   33.0000 	   53.7709
    1.0605 	   77.0905 	    1.0000 	   33.0000 	   54.1010
    0.8316 	   77.2545 	    1.0000 	   33.0000 	   54.4280
    1.1978 	   77.4255 	    1.0000 	   33.0000 	   54.7710
    1.0452 	   77.5905 	    1.0000 	   33.0000 	   55.1000
    1.2894 	   77.7510 	    1.0000 	   33.0000 	   55.4210
    1.1521 	   77.9130 	    1.0000 	   33.0000 	   55.7450
    1.0605 	   78.0715 	    1.0000 	   33.0000 	   56.0621
    0.9537 	   78.2400 	    1.0000 	   33.0000 	   56.3991
    1.1215 	   78.4170 	    1.0000 	   33.0000 	   56.7531
    1.3046 	   78.5830 	    1.0000 	   33.0000 	   57.0851
    1.0758 	   78.7460 	    1.0000 	   33.0000 	   57.4111
    1.0452 	   78.9145 	    1.0000 	   33.0000 	   57.7472
    1.0605 	   79.0750 	    1.0000 	   33.0000 	   58.0692
    1.2131 	   79.2360 	    1.0000 	   33.0000 	   58.3912
    1.1521 	   79.4125 	    1.0000 	   33.0000 	   58.7442
    1.0147 	   79.5765 	    1.0000 	   33.0000 	   59.0722
    1.0910 	   79.7365 	    1.0000 	   33.0000 	   59.3923
    0.8469 	   79.9010 	    1.0000 	   33.0000 	   59.7213
    1.0147 	   80.0745 	    1.0000 	   34.0000 	    0.0683
    0.9689 	   80.2330 	    1.0000 	   34.0000 	    0.3853
    0.9995 	   80.4070 	    1.0000 	   34.0000 	    0.7333
    0.9384 	   80.5655 	    1.0000 	   34.0000 	    1.0504
    0.9689 	   80.7275 	    1.0000 	   34.0000 	    1.3744
    1.0605 	   80.9015 	    1.0000 	   34.0000 	    1.7224
    1.0758 	   81.0655 	    1.0000 	   34.0000 	    2.0504
    1.0910 	   81.2260 	    1.0000 	   34.0000 	    2.3714
    1.0605 	   81.3885 	    1.0000 	   34.0000 	    2.6964
    1.1215 	   81.5595 	    1.0000 	   34.0000 	    3.0385
    0.8774 	   81.7265 	    1.0000 	   34.0000 	    3.3725
    0.8927 	   81.9025 	    1.0000 	   34.0000 	    3.7245
    0.9842 	   82.0800 	    1.0000 	   34.0000 	    4.0795
    0.8621 	   82.2505 	    1.0000 	   34.0000 	    4.4205
    0.8927 	   82.4165 	    1.0000 	   34.0000 	    4.7526
    0.8927 	   82.5845 	    1.0000 	   34.0000 	    5.0886
    0.8469 	   82.7460 	    1.0000 	   34.0000 	    5.4116
    1.0147 	   82.9160 	    1.0000 	   34.0000 	    5.7516
    0.8621 	   83.0850 	    1.0000 	   34.0000 	    6.0896
    0.9384 	   83.2495 	    1.0000 	   34.0000 	    6.4187
    0.9232 	   83.4130 	    1.0000 	   34.0000 	    6.7457
    0.8621 	   83.5810 	    1.0000 	   34.0000 	    7.0817
    0.8774 	   83.7505 	    1.0000 	   34.0000 	    7.4207
    0.8011 	   83.9170 	    1.0000 	   34.0000 	    7.7537
    1.0300 	   84.0935 	    1.0000 	   34.0000 	    8.1068
    0.7095 	   84.2695 	    1.0000 	   34.0000 	    8.4588
    0.9079 	   84.4385 	    1.0000 	   34.0000 	    8.7968
    0.8316 	   84.6120 	    1.0000 	   34.0000 	    9.1438
    0.7401 	   84.7915 	    1.0000 	   34.0000 	    9.5028
    0.8774 	   84.9745 	    1.0000 	   34.0000 	    9.8689
    0.8011 	   85.1430 	    1.0000 	   34.0000 	   10.2059
    0.8621 	   85.3195 	    1.0000 	   34.0000 	   10.5589
    0.4501 	   85.4850 	    1.0000 	   34.0000 	   10.8899
    0.8621 	   85.6565 	    1.0000 	   34.0000 	   11.2329
    0.8621 	   85.8380 	    1.0000 	   34.0000 	   11.5960
    0.8621 	   86.0230 	    1.0000 	   34.0000 	   11.9660
    0.7248 	   86.2040 	    1.0000 	   34.0000 	   12.3270
    0.6943 	   86.3805 	    1.0000 	   34.0000 	   12.6800
    0.6790 	   86.5545 	    1.0000 	   34.0000 	   13.0280
    0.8774 	   86.7250 	    1.0000 	   34.0000 	   13.3691
    0.7401 	   86.8990 	    1.0000 	   34.0000 	   13.7171
    0.6638 	   87.0705 	    1.0000 	   34.0000 	   14.0601
    0.6638 	   87.2395 	    1.0000 	   34.0000 	   14.3981
    0.6943 	   87.4180 	    1.0000 	   34.0000 	   14.7551
    0.7553 	   87.5935 	    1.0000 	   34.0000 	   15.1062
    0.6180 	   87.7635 	    1.0000 	   34.0000 	   15.4462
    0.7858 	   87.9420 	    1.0000 	   34.0000 	   15.8032
    0.7858 	   88.1215 	    1.0000 	   34.0000 	   16.1622
    0.6180 	   88.2890 	    1.0000 	   34.0000 	   16.4972
    0.8316 	   88.4655 	    1.0000 	   34.0000 	   16.8503
    0.7095 	   88.6400 	    1.0000 	   34.0000 	   17.1993
    0.6180 	   88.8070 	    1.0000 	   34.0000 	   17.5333
    0.7401 	   88.9760 	    1.0000 	   34.0000 	   17.8713
    0.6332 	   89.1435 	    1.0000 	   34.0000 	   18.2063
    0.7706 	   89.3170 	    1.0000 	   34.0000 	   18.5534
    0.6943 	   89.4915 	    1.0000 	   34.0000 	   18.9024
    0.6943 	   89.6640 	    1.0000 	   34.0000 	   19.2474
    0.8774 	   89.8385 	    1.0000 	   34.0000 	   19.5964
    0.5570 	   90.0110 	    1.0000 	   34.0000 	   19.9414
    0.7401 	   90.1945 	    1.0000 	   34.0000 	   20.3085
    0.5875 	   90.3760 	    1.0000 	   34.0000 	   20.6715
    0.6485 	   90.5485 	    1.0000 	   34.0000 	   21.0165
    0.6485 	   90.7295 	    1.0000 	   34.0000 	   21.3785
    0.6485 	   90.9110 	    1.0000 	   34.0000 	   21.7415
    0.5722 	   91.0905 	    1.0000 	   34.0000 	   22.1006
    0.6485 	   91.2650 	    1.0000 	   34.0000 	   22.4496
    0.5570 	   91.4415 	    1.0000 	   34.0000 	   22.8026
    0.5417 	   91.6240 	    1.0000 	   34.0000 	   23.1676
    0.6790 	   91.8000 	    1.0000 	   34.0000 	   23.5196
    0.7858 	   91.9740 	    1.0000 	   34.0000 	   23.8677
    0.4959 	   92.1460 	    1.0000 	   34.0000 	   24.2117
    0.6638 	   92.3280 	    1.0000 	   34.0000 	   24.5757
    0.7553 	   92.5070 	    1.0000 	   34.0000 	   24.9337
    0.6332 	   92.6890 	    1.0000 	   34.0000 	   25.2977
    0.5570 	   92.8720 	    1.0000 	   34.0000 	   25.6638
    0.6180 	   93.0550 	    1.0000 	   34.0000 	   26.0298
    0.6332 	   93.2360 	    1.0000 	   34.0000 	   26.3918
    0.5875 	   93.4120 	    1.0000 	   34.0000 	   26.7438
    0.6943 	   93.5945 	    1.0000 	   34.0000 	   27.1088
    0.6943 	   93.7660 	    1.0000 	   34.0000 	   27.4519
    0.6332 	   93.9490 	    1.0000 	   34.0000 	   27.8179
    0.6180 	   94.1310 	    1.0000 	   34.0000 	   28.1819
    0.6180 	   94.3100 	    1.0000 	   34.0000 	   28.5399
    0.5112 	   94.4935 	    1.0000 	   34.0000 	   28.9069
    0.4959 	   94.6770 	    1.0000 	   34.0000 	   29.2740
    0.4959 	   94.8600 	    1.0000 	   34.0000 	   29.6400
    0.4959 	   95.0370 	    1.0000 	   34.0000 	   29.9930
    0.6332 	   95.2170 	    1.0000 	   34.0000 	   30.3530
    0.5875 	   95.4025 	    1.0000 	   34.0000 	   30.7240
    0.6790 	   95.5800 	    1.0000 	   34.0000 	   31.0791
    0.6027 	   95.7520 	    1.0000 	   34.0000 	   31.4231
    0.2976 	   95.9280 	    1.0000 	   34.0000 	   31.7751
    0.6943 	   96.1050 	    1.0000 	   34.0000 	   32.1291
    0.5417 	   96.2865 	    1.0000 	   34.0000 	   32.4921
    0.5264 	   96.4705 	    1.0000 	   34.0000 	   32.8592
    0.3891 	   96.6440 	    1.0000 	   34.0000 	   33.2072
    0.5112 	   96.8190 	    1.0000 	   34.0000 	   33.5572
    0.5417 	   96.9940 	    1.0000 	   34.0000 	   33.9072
    0.6332 	   97.1695 	    1.0000 	   34.0000 	   34.2583
    0.2670 	   97.3455 	    1.0000 	   34.0000 	   34.6103
    0.4959 	   97.5200 	    1.0000 	   34.0000 	   34.9593
    0.4959 	   97.6955 	    1.0000 	   34.0000 	   35.3103
    0.5570 	   97.8705 	    1.0000 	   34.0000 	   35.6603
    0.5722 	   98.0460 	    1.0000 	   34.0000 	   36.0113
    0.5112 	   98.2220 	    1.0000 	   34.0000 	   36.3634
    0.6790 	   98.3970 	    1.0000 	   34.0000 	   36.7134
    0.4654 	   98.5720 	    1.0000 	   34.0000 	   37.0634
    0.5875 	   98.7465 	    1.0000 	   34.0000 	   37.4124
    0.5570 	   98.9215 	    1.0000 	   34.0000 	   37.7625
    0.4959 	   99.0970 	    1.0000 	   34.0000 	   38.1135
    0.5112 	   99.2715 	    1.0000 	   34.0000 	   38.4625
    0.5112 	   99.4475 	    1.0000 	   34.0000 	   38.8145
    0.5112 	   99.6235 	    1.0000 	   34.0000 	   39.1665
    0.4501 	   99.8070 	    1.0000 	   34.0000 	   39.5336
    0.3586 	   99.9815 	    1.0000 	   34.0000 	   39.8826
    0.4501 	  100.1610 	    1.0000 	   34.0000 	   40.2416
    0.2976 	  100.3360 	    1.0000 	   34.0000 	   40.5916
    0.6180 	  100.5115 	    1.0000 	   34.0000 	   40.9426
    0.3738 	  100.6900 	    1.0000 	   34.0000 	   41.2997
    0.4044 	  100.8695 	    1.0000 	   34.0000 	   41.6587
    0.6485 	  101.0470 	    1.0000 	   34.0000 	   42.0137
    0.4044 	  101.2250 	    1.0000 	   34.0000 	   42.3697
    0.4501 	  101.4010 	    1.0000 	   34.0000 	   42.7217
    0.4959 	  101.5775 	    1.0000 	   34.0000 	   43.0748
    0.5112 	  101.7615 	    1.0000 	   34.0000 	   43.4428
    0.4196 	  101.9490 	    1.0000 	   34.0000 	   43.8178
    0.5722 	  102.1290 	    1.0000 	   34.0000 	   44.1778
    0.4044 	  102.3065 	    1.0000 	   34.0000 	   44.5328
    0.4196 	  102.4835 	    1.0000 	   34.0000 	   44.8869
    0.3128 	  102.6695 	    1.0000 	   34.0000 	   45.2589
    0.4196 	  102.8540 	    1.0000 	   34.0000 	   45.6279
    0.3891 	  103.0430 	    1.0000 	   34.0000 	   46.0059
    0.4196 	  103.2185 	    1.0000 	   34.0000 	   46.3569
    0.5112 	  103.3980 	    1.0000 	   34.0000 	   46.7160
    0.2670 	  103.5855 	    1.0000 	   34.0000 	   47.0910
    0.3891 	  103.7755 	    1.0000 	   34.0000 	   47.4700
    0.4044 	  103.9665 	    1.0000 	   34.0000 	   47.8520
    0.2518 	  104.1535 	    1.0000 	   34.0000 	   48.2260
    0.4196 	  104.3430 	    1.0000 	   34.0000 	   48.6051
    0.4501 	  104.5260 	    1.0000 	   34.0000 	   48.9711
    0.5112 	  104.7050 	    1.0000 	   34.0000 	   49.3291
    0.4196 	  104.8945 	    1.0000 	   34.0000 	   49.7081
    0.4501 	  105.0725 	    1.0000 	   34.0000 	   50.0632
    0.3433 	  105.2500 	    1.0000 	   34.0000 	   50.4192
    0.5875 	  105.4365 	    1.0000 	   34.0000 	   50.7922
    0.3128 	  105.6135 	    1.0000 	   34.0000 	   51.1462
    0.4654 	  105.8035 	    1.0000 	   34.0000 	   51.5262
    0.3128 	  105.9910 	    1.0000 	   34.0000 	   51.9013
    0.3891 	  106.1720 	    1.0000 	   34.0000 	   52.2633
    0.4501 	  106.3550 	    1.0000 	   34.0000 	   52.6293
    0.4654 	  106.5350 	    1.0000 	   34.0000 	   52.9893
    0.5417 	  106.7155 	    1.0000 	   34.0000 	   53.3503
    0.4807 	  106.8975 	    1.0000 	   34.0000 	   53.7144
    0.3281 	  107.0745 	    1.0000 	   34.0000 	   54.0684
    0.3738 	  107.2515 	    1.0000 	   34.0000 	   54.4224
    0.4349 	  107.4365 	    1.0000 	   34.0000 	   54.7924
    0.3738 	  107.6175 	    1.0000 	   34.0000 	   55.1544
    0.3891 	  107.8065 	    1.0000 	   34.0000 	   55.5325
    0.4196 	  108.0020 	    1.0000 	   34.0000 	   55.9235
    0.4501 	  108.1940 	    1.0000 	   34.0000 	   56.3075
    0.4654 	  108.3880 	    1.0000 	   34.0000 	   56.6955
    0.4196 	  108.5755 	    1.0000 	   34.0000 	   57.0706
    0.4044 	  108.7585 	    1.0000 	   34.0000 	   57.4366
    0.4349 	  108.9460 	    1.0000 	   34.0000 	   57.8116
    0.4196 	  109.1355 	    1.0000 	   34.0000 	   58.1906
    0.3433 	  109.3300 	    1.0000 	   34.0000 	   58.5796
    0.4654 	  109.5150 	    1.0000 	   34.0000 	   58.9497
    0.3128 	  109.6965 	    1.0000 	   34.0000 	   59.3127
    0.3891 	  109.8860 	    1.0000 	   34.0000 	   59.6917
    0.5112 	  110.0805 	    1.0000 	   35.0000 	    0.0807
    0.3433 	  110.2720 	    1.0000 	   35.0000 	    0.4637
    0.3738 	  110.4645 	    1.0000 	   35.0000 	    0.8488
    0.4349 	  110.6600 	    1.0000 	   35.0000 	    1.2398
    0.2213 	  110.8520 	    1.0000 	   35.0000 	    1.6238
    0.3433 	  111.0480 	    1.0000 	   35.0000 	    2.0158
    0.2365 	  111.2355 	    1.0000 	   35.0000 	    2.3909
    0.3433 	  111.4270 	    1.0000 	   35.0000 	    2.7739
    0.2823 	  111.6230 	    1.0000 	   35.0000 	    3.1659
    0.0076 	  111.8140 	    1.0000 	   35.0000 	    3.5479
    0.4349 	  112.0010 	    1.0000 	   35.0000 	    3.9219
    0.3281 	  112.1835 	    1.0000 	   35.0000 	    4.2870
    0.3281 	  112.3665 	    1.0000 	   35.0000 	    4.6530
    0.4959 	  112.5510 	    1.0000 	   35.0000 	    5.0210
    0.2976 	  112.7380 	    1.0000 	   35.0000 	    5.3950
    0.3738 	  112.8975 	    1.0000 	   35.0000 	    5.7140