File: instron/deadline/hysteresis/blue_15_2_new/blue_15_2_60_120.txt
Thayer School of Engineering        Instron 4442 Mechanical Testing System
7/9/2018 3:19:53 AM

  Force (N)	Extension (mm)	Not Used	Not Used	Not Used	     Hour	    Minute	    Second
    1.3809 	    2.0380 	    3.0000 	   20.0000 	   21.6203
    1.4725 	    2.3060 	    3.0000 	   20.0000 	   21.7543
    1.1368 	    2.5620 	    3.0000 	   20.0000 	   21.8823
    1.3199 	    2.8900 	    3.0000 	   20.0000 	   22.0463
    1.3046 	    3.2080 	    3.0000 	   20.0000 	   22.2053
    1.5640 	    3.4720 	    3.0000 	   20.0000 	   22.3373
    1.5335 	    3.7800 	    3.0000 	   20.0000 	   22.4913
    1.5488 	    4.0920 	    3.0000 	   20.0000 	   22.6473
    1.6251 	    4.3960 	    3.0000 	   20.0000 	   22.7993
    1.6403 	    4.6140 	    3.0000 	   20.0000 	   22.9084
    1.5640 	    4.8420 	    3.0000 	   20.0000 	   23.0224
    1.8387 	    5.1320 	    3.0000 	   20.0000 	   23.1674
    1.6861 	    5.4020 	    3.0000 	   20.0000 	   23.3024
    1.7777 	    5.6780 	    3.0000 	   20.0000 	   23.4404
    1.8082 	    5.9760 	    3.0000 	   20.0000 	   23.5894
    1.8997 	    6.2720 	    3.0000 	   20.0000 	   23.7374
    1.7929 	    6.5120 	    3.0000 	   20.0000 	   23.8574
    1.8387 	    6.7260 	    3.0000 	   20.0000 	   23.9644
    1.8997 	    6.9540 	    3.0000 	   20.0000 	   24.0784
    1.7166 	    7.1320 	    3.0000 	   20.0000 	   24.1674
    2.1134 	    7.3040 	    3.0000 	   20.0000 	   24.2534
    1.6861 	    7.5200 	    3.0000 	   20.0000 	   24.3614
    2.0218 	    7.7500 	    3.0000 	   20.0000 	   24.4764
    1.8845 	    7.9300 	    3.0000 	   20.0000 	   24.5664
    2.1134 	    8.1220 	    3.0000 	   20.0000 	   24.6625
    2.2049 	    8.3220 	    3.0000 	   20.0000 	   24.7625
    2.0829 	    8.5580 	    3.0000 	   20.0000 	   24.8805
    2.1897 	    8.7420 	    3.0000 	   20.0000 	   24.9725
    2.0523 	    8.9300 	    3.0000 	   20.0000 	   25.0665
    2.1286 	    9.0920 	    3.0000 	   20.0000 	   25.1475
    2.2354 	    9.2580 	    3.0000 	   20.0000 	   25.2305
    2.2660 	    9.4200 	    3.0000 	   20.0000 	   25.3115
    2.2049 	    9.5980 	    3.0000 	   20.0000 	   25.4005
    2.2965 	    9.7920 	    3.0000 	   20.0000 	   25.4975
    1.9150 	   10.0360 	    3.0000 	   20.0000 	   25.6195
    2.3423 	   10.2080 	    3.0000 	   20.0000 	   25.7055
    2.2507 	   10.4000 	    3.0000 	   20.0000 	   25.8015
    2.1286 	   10.5860 	    3.0000 	   20.0000 	   25.8945
    2.3880 	   10.8280 	    3.0000 	   20.0000 	   26.0155
    2.5101 	   11.0040 	    3.0000 	   20.0000 	   26.1035
    2.2507 	   11.2260 	    3.0000 	   20.0000 	   26.2145
    2.3575 	   11.3840 	    3.0000 	   20.0000 	   26.2935
    2.4796 	   11.5480 	    3.0000 	   20.0000 	   26.3755
    2.4491 	   11.7920 	    3.0000 	   20.0000 	   26.4976
    2.2812 	   11.9760 	    3.0000 	   20.0000 	   26.5896
    2.4948 	   12.1560 	    3.0000 	   20.0000 	   26.6796
    2.4186 	   12.3420 	    3.0000 	   20.0000 	   26.7726
    2.5254 	   12.5340 	    3.0000 	   20.0000 	   26.8686
    2.5406 	   12.7120 	    3.0000 	   20.0000 	   26.9576
    2.4338 	   12.9040 	    3.0000 	   20.0000 	   27.0536
    2.5711 	   13.0780 	    3.0000 	   20.0000 	   27.1406
    2.7237 	   13.2400 	    3.0000 	   20.0000 	   27.2216
    2.5559 	   13.3980 	    3.0000 	   20.0000 	   27.3006
    2.5559 	   13.5800 	    3.0000 	   20.0000 	   27.3916
    2.5559 	   13.7700 	    3.0000 	   20.0000 	   27.4866
    2.6932 	   13.9620 	    3.0000 	   20.0000 	   27.5826
    2.6017 	   14.1460 	    3.0000 	   20.0000 	   27.6746
    2.6627 	   14.3420 	    3.0000 	   20.0000 	   27.7726
    2.7695 	   14.5900 	    3.0000 	   20.0000 	   27.8966
    2.8153 	   14.7900 	    3.0000 	   20.0000 	   27.9966
    2.8763 	   14.9840 	    3.0000 	   20.0000 	   28.0936
    2.7543 	   15.1560 	    3.0000 	   20.0000 	   28.1797
    2.8458 	   15.3220 	    3.0000 	   20.0000 	   28.2627
    2.8458 	   15.4720 	    3.0000 	   20.0000 	   28.3377
    2.7848 	   15.6620 	    3.0000 	   20.0000 	   28.4327
    2.7390 	   15.8500 	    3.0000 	   20.0000 	   28.5257
    2.7848 	   16.0380 	    3.0000 	   20.0000 	   28.6207
    2.9679 	   16.2320 	    3.0000 	   20.0000 	   28.7177
    2.9374 	   16.4240 	    3.0000 	   20.0000 	   28.8137
    3.0289 	   16.6100 	    3.0000 	   20.0000 	   28.9067
    2.9679 	   16.8100 	    3.0000 	   20.0000 	   29.0067
    2.9831 	   17.0000 	    3.0000 	   20.0000 	   29.1017
    3.0137 	   17.2360 	    3.0000 	   20.0000 	   29.2197
    2.9374 	   17.4020 	    3.0000 	   20.0000 	   29.3027
    3.0137 	   17.5740 	    3.0000 	   20.0000 	   29.3887
    3.1052 	   17.7760 	    3.0000 	   20.0000 	   29.4897
    3.2120 	   17.9620 	    3.0000 	   20.0000 	   29.5827
    3.3188 	   18.1580 	    3.0000 	   20.0000 	   29.6807
    3.0747 	   18.3480 	    3.0000 	   20.0000 	   29.7757
    3.2578 	   18.5180 	    3.0000 	   20.0000 	   29.8608
    3.1815 	   18.7060 	    3.0000 	   20.0000 	   29.9548
    3.3646 	   18.9020 	    3.0000 	   20.0000 	   30.0528
    3.2578 	   19.0720 	    3.0000 	   20.0000 	   30.1378
    3.2731 	   19.2480 	    3.0000 	   20.0000 	   30.2258
    3.3188 	   19.4700 	    3.0000 	   20.0000 	   30.3368
    3.2883 	   19.6460 	    3.0000 	   20.0000 	   30.4248
    3.2883 	   19.8280 	    3.0000 	   20.0000 	   30.5158
    3.3036 	   20.0160 	    3.0000 	   20.0000 	   30.6098
    3.5019 	   20.2020 	    3.0000 	   20.0000 	   30.7028
    3.5630 	   20.3920 	    3.0000 	   20.0000 	   30.7978
    3.2883 	   20.5740 	    3.0000 	   20.0000 	   30.8888
    3.3799 	   20.7680 	    3.0000 	   20.0000 	   30.9858
    3.4714 	   20.9600 	    3.0000 	   20.0000 	   31.0818
    3.3951 	   21.1380 	    3.0000 	   20.0000 	   31.1708
    3.5325 	   21.3080 	    3.0000 	   20.0000 	   31.2558
    3.5172 	   21.4680 	    3.0000 	   20.0000 	   31.3358
    3.5172 	   21.6340 	    3.0000 	   20.0000 	   31.4188
    3.6240 	   21.8120 	    3.0000 	   20.0000 	   31.5078
    3.4714 	   22.0080 	    3.0000 	   20.0000 	   31.6059
    3.5172 	   22.2060 	    3.0000 	   20.0000 	   31.7049
    3.6393 	   22.3900 	    3.0000 	   20.0000 	   31.7969
    3.6240 	   22.5760 	    3.0000 	   20.0000 	   31.8899
    3.5935 	   22.7720 	    3.0000 	   20.0000 	   31.9879
    3.6393 	   22.9520 	    3.0000 	   20.0000 	   32.0779
    3.6698 	   23.1380 	    3.0000 	   20.0000 	   32.1709
    3.7613 	   23.3120 	    3.0000 	   20.0000 	   32.2579
    3.6698 	   23.4720 	    3.0000 	   20.0000 	   32.3379
    3.9445 	   23.6620 	    3.0000 	   20.0000 	   32.4329
    3.8376 	   23.8540 	    3.0000 	   20.0000 	   32.5289
    3.7766 	   24.0400 	    3.0000 	   20.0000 	   32.6219
    3.6545 	   24.2340 	    3.0000 	   20.0000 	   32.7189
    3.9597 	   24.4200 	    3.0000 	   20.0000 	   32.8119
    3.8224 	   24.6080 	    3.0000 	   20.0000 	   32.9059
    4.0513 	   24.8080 	    3.0000 	   20.0000 	   33.0059
    3.8071 	   24.9940 	    3.0000 	   20.0000 	   33.0989
    3.7919 	   25.1740 	    3.0000 	   20.0000 	   33.1889
    4.0818 	   25.3440 	    3.0000 	   20.0000 	   33.2739
    4.0208 	   25.5040 	    3.0000 	   20.0000 	   33.3540
    4.1428 	   25.6720 	    3.0000 	   20.0000 	   33.4380
    3.9750 	   25.8580 	    3.0000 	   20.0000 	   33.5310
    4.2191 	   26.0380 	    3.0000 	   20.0000 	   33.6210
    4.1581 	   26.2900 	    3.0000 	   20.0000 	   33.7470
    4.0055 	   26.4720 	    3.0000 	   20.0000 	   33.8370
    4.0513 	   26.6640 	    3.0000 	   20.0000 	   33.9330
    4.1581 	   26.8480 	    3.0000 	   20.0000 	   34.0250
    4.1581 	   27.0340 	    3.0000 	   20.0000 	   34.1180
    4.0055 	   27.2100 	    3.0000 	   20.0000 	   34.2060
    4.2039 	   27.3760 	    3.0000 	   20.0000 	   34.2890
    4.2191 	   27.5360 	    3.0000 	   20.0000 	   34.3690
    4.3565 	   27.7140 	    3.0000 	   20.0000 	   34.4580
    4.2954 	   27.9100 	    3.0000 	   20.0000 	   34.5560
    4.2649 	   28.1060 	    3.0000 	   20.0000 	   34.6540
    4.0360 	   28.3040 	    3.0000 	   20.0000 	   34.7530
    4.5548 	   28.4840 	    3.0000 	   20.0000 	   34.8430
    4.3717 	   28.6800 	    3.0000 	   20.0000 	   34.9410
    4.4480 	   28.8440 	    3.0000 	   20.0000 	   35.0230
    4.5090 	   29.0260 	    3.0000 	   20.0000 	   35.1141
    4.4785 	   29.2000 	    3.0000 	   20.0000 	   35.2011
    4.5853 	   29.3680 	    3.0000 	   20.0000 	   35.2851
    4.4785 	   29.5260 	    3.0000 	   20.0000 	   35.3641
    4.5243 	   29.7120 	    3.0000 	   20.0000 	   35.4571
    4.7684 	   29.9080 	    3.0000 	   20.0000 	   35.5551
    4.6311 	   30.1040 	    3.0000 	   20.0000 	   35.6531
    4.3107 	   30.3000 	    3.0000 	   20.0000 	   35.7511
    4.7227 	   30.4860 	    3.0000 	   20.0000 	   35.8441
    4.7532 	   30.6800 	    3.0000 	   20.0000 	   35.9411
    4.5243 	   30.8740 	    3.0000 	   20.0000 	   36.0381
    4.7684 	   31.0700 	    3.0000 	   20.0000 	   36.1361
    4.7227 	   31.2520 	    3.0000 	   20.0000 	   36.2271
    4.8295 	   31.4160 	    3.0000 	   20.0000 	   36.3091
    4.7837 	   31.5820 	    3.0000 	   20.0000 	   36.3921
    4.9668 	   31.7560 	    3.0000 	   20.0000 	   36.4791
    4.8753 	   31.9440 	    3.0000 	   20.0000 	   36.5731
    5.0126 	   32.1500 	    3.0000 	   20.0000 	   36.6761
    4.8905 	   32.3400 	    3.0000 	   20.0000 	   36.7711
    5.0278 	   32.5320 	    3.0000 	   20.0000 	   36.8671
    5.1194 	   32.7460 	    3.0000 	   20.0000 	   36.9742
    5.0278 	   32.9440 	    3.0000 	   20.0000 	   37.0732
    4.8142 	   33.1380 	    3.0000 	   20.0000 	   37.1702
    5.1652 	   33.3120 	    3.0000 	   20.0000 	   37.2572
    5.2415 	   33.4800 	    3.0000 	   20.0000 	   37.3412
    5.1652 	   33.6440 	    3.0000 	   20.0000 	   37.4232
    4.9516 	   33.8180 	    3.0000 	   20.0000 	   37.5102
    5.0736 	   34.0120 	    3.0000 	   20.0000 	   37.6072
    5.2262 	   34.2020 	    3.0000 	   20.0000 	   37.7022
    5.3025 	   34.3880 	    3.0000 	   20.0000 	   37.7952
    5.3941 	   34.5820 	    3.0000 	   20.0000 	   37.8922
    5.4246 	   34.7800 	    3.0000 	   20.0000 	   37.9912
    5.3178 	   34.9820 	    3.0000 	   20.0000 	   38.0922
    5.3788 	   35.1780 	    3.0000 	   20.0000 	   38.1902
    5.4704 	   35.3520 	    3.0000 	   20.0000 	   38.2772
    5.4856 	   35.5360 	    3.0000 	   20.0000 	   38.3692
    5.5467 	   35.7000 	    3.0000 	   20.0000 	   38.4512
    5.4398 	   35.8760 	    3.0000 	   20.0000 	   38.5392
    5.4704 	   36.0800 	    3.0000 	   20.0000 	   38.6413
    5.5619 	   36.2740 	    3.0000 	   20.0000 	   38.7383
    5.7298 	   36.4740 	    3.0000 	   20.0000 	   38.8383
    5.6992 	   36.6760 	    3.0000 	   20.0000 	   38.9393
    5.7298 	   36.8800 	    3.0000 	   20.0000 	   39.0413
    5.6840 	   37.0720 	    3.0000 	   20.0000 	   39.1373
    5.6382 	   37.2600 	    3.0000 	   20.0000 	   39.2313
    5.7145 	   37.4320 	    3.0000 	   20.0000 	   39.3173
    5.8824 	   37.6060 	    3.0000 	   20.0000 	   39.4043
    5.7908 	   37.8040 	    3.0000 	   20.0000 	   39.5033
    5.9892 	   38.0040 	    3.0000 	   20.0000 	   39.6033
    6.0655 	   38.1960 	    3.0000 	   20.0000 	   39.6993
    6.0197 	   38.3880 	    3.0000 	   20.0000 	   39.7953
    5.9739 	   38.5760 	    3.0000 	   20.0000 	   39.8893
    6.0349 	   38.7800 	    3.0000 	   20.0000 	   39.9913
    6.0807 	   38.9740 	    3.0000 	   20.0000 	   40.0883
    6.1723 	   39.1700 	    3.0000 	   20.0000 	   40.1863
    6.1112 	   39.3480 	    3.0000 	   20.0000 	   40.2753
    6.2943 	   39.5260 	    3.0000 	   20.0000 	   40.3643
    6.3096 	   39.7020 	    3.0000 	   20.0000 	   40.4524
    6.2486 	   39.8840 	    3.0000 	   20.0000 	   40.5434
    6.2943 	   40.0860 	    3.0000 	   20.0000 	   40.6434
    6.3706 	   40.2940 	    3.0000 	   20.0000 	   40.7484
    6.2486 	   40.4820 	    3.0000 	   20.0000 	   40.8424
    6.4164 	   40.6780 	    3.0000 	   20.0000 	   40.9404
    6.3706 	   40.8840 	    3.0000 	   20.0000 	   41.0434
    6.6148 	   41.0740 	    3.0000 	   20.0000 	   41.1384
    6.4469 	   41.2720 	    3.0000 	   20.0000 	   41.2374
    6.5690 	   41.4520 	    3.0000 	   20.0000 	   41.3274
    6.6911 	   41.6200 	    3.0000 	   20.0000 	   41.4114
    6.6758 	   41.8200 	    3.0000 	   20.0000 	   41.5114
    6.6300 	   42.0160 	    3.0000 	   20.0000 	   41.6094
    6.7826 	   42.2120 	    3.0000 	   20.0000 	   41.7074
    6.8132 	   42.4120 	    3.0000 	   20.0000 	   41.8074
    6.8742 	   42.6100 	    3.0000 	   20.0000 	   41.9064
    6.9352 	   42.8160 	    3.0000 	   20.0000 	   42.0094
    6.9200 	   43.0220 	    3.0000 	   20.0000 	   42.1124
    7.1336 	   43.2260 	    3.0000 	   20.0000 	   42.2145
    7.0878 	   43.4140 	    3.0000 	   20.0000 	   42.3085
    7.2251 	   43.5820 	    3.0000 	   20.0000 	   42.3925
    6.8742 	   43.7560 	    3.0000 	   20.0000 	   42.4795
    6.7521 	   43.9400 	    3.0000 	   20.0000 	   42.5715
    7.2404 	   44.1380 	    3.0000 	   20.0000 	   42.6705
    7.3625 	   44.3220 	    3.0000 	   20.0000 	   42.7625
    7.3777 	   44.5260 	    3.0000 	   20.0000 	   42.8645
    7.1946 	   44.7240 	    3.0000 	   20.0000 	   42.9635
    7.1946 	   44.9200 	    3.0000 	   20.0000 	   43.0615
    7.4083 	   45.1220 	    3.0000 	   20.0000 	   43.1625
    7.6371 	   45.3080 	    3.0000 	   20.0000 	   43.2555
    7.6982 	   45.5000 	    3.0000 	   20.0000 	   43.3515
    7.6677 	   45.6660 	    3.0000 	   20.0000 	   43.4345
    7.6066 	   45.8500 	    3.0000 	   20.0000 	   43.5265
    7.7897 	   46.0440 	    3.0000 	   20.0000 	   43.6235
    7.7287 	   46.2460 	    3.0000 	   20.0000 	   43.7245
    7.8050 	   46.4420 	    3.0000 	   20.0000 	   43.8225
    7.8355 	   46.6400 	    3.0000 	   20.0000 	   43.9216
    7.8508 	   46.8440 	    3.0000 	   20.0000 	   44.0236
    7.9423 	   47.0400 	    3.0000 	   20.0000 	   44.1216
    7.9576 	   47.2300 	    3.0000 	   20.0000 	   44.2166
    8.0644 	   47.4060 	    3.0000 	   20.0000 	   44.3046
    8.2628 	   47.5800 	    3.0000 	   20.0000 	   44.3916
    8.2780 	   47.7740 	    3.0000 	   20.0000 	   44.4886
    8.1102 	   47.9760 	    3.0000 	   20.0000 	   44.5896
    8.4153 	   48.1800 	    3.0000 	   20.0000 	   44.6916
    8.3391 	   48.3760 	    3.0000 	   20.0000 	   44.7896
    8.3391 	   48.5580 	    3.0000 	   20.0000 	   44.8806
    8.5374 	   48.7360 	    3.0000 	   20.0000 	   44.9696
    8.6137 	   48.9480 	    3.0000 	   20.0000 	   45.0756
    8.4611 	   49.1500 	    3.0000 	   20.0000 	   45.1766
    8.5832 	   49.3340 	    3.0000 	   20.0000 	   45.2686
    8.8121 	   49.5100 	    3.0000 	   20.0000 	   45.3566
    8.6290 	   49.6860 	    3.0000 	   20.0000 	   45.4446
    8.8579 	   49.8760 	    3.0000 	   20.0000 	   45.5396
    8.8121 	   50.0760 	    3.0000 	   20.0000 	   45.6397
    8.9494 	   50.3500 	    3.0000 	   20.0000 	   45.7767
    9.0715 	   50.5500 	    3.0000 	   20.0000 	   45.8767
    9.1020 	   50.7480 	    3.0000 	   20.0000 	   45.9757
    9.1020 	   50.9440 	    3.0000 	   20.0000 	   46.0737
    9.2546 	   51.1500 	    3.0000 	   20.0000 	   46.1767
    9.2699 	   51.4060 	    3.0000 	   20.0000 	   46.3047
    9.4530 	   51.5960 	    3.0000 	   20.0000 	   46.3997
    9.4987 	   51.7820 	    3.0000 	   20.0000 	   46.4917
    9.5903 	   51.9760 	    3.0000 	   20.0000 	   46.5897
    9.6208 	   52.1540 	    3.0000 	   20.0000 	   46.6787
    9.5598 	   52.3260 	    3.0000 	   20.0000 	   46.7647
    9.8039 	   52.5000 	    3.0000 	   20.0000 	   46.8517
    9.7734 	   52.6980 	    3.0000 	   20.0000 	   46.9507
    9.8802 	   52.8940 	    3.0000 	   20.0000 	   47.0487
   10.1854 	   53.1900 	    3.0000 	   20.0000 	   47.1967
   10.2159 	   53.3900 	    3.0000 	   20.0000 	   47.2967
   10.3075 	   53.5820 	    3.0000 	   20.0000 	   47.3928
   10.3380 	   53.7500 	    3.0000 	   20.0000 	   47.4768
   10.3990 	   53.9300 	    3.0000 	   20.0000 	   47.5668
   10.5364 	   54.1480 	    3.0000 	   20.0000 	   47.6758
   10.4143 	   54.3500 	    3.0000 	   20.0000 	   47.7768
   10.6279 	   54.5540 	    3.0000 	   20.0000 	   47.8788
   10.6279 	   54.7600 	    3.0000 	   20.0000 	   47.9818
   10.8263 	   54.9560 	    3.0000 	   20.0000 	   48.0798
   10.8873 	   55.1600 	    3.0000 	   20.0000 	   48.1818
   10.9026 	   55.3480 	    3.0000 	   20.0000 	   48.2758
   11.0246 	   55.5440 	    3.0000 	   20.0000 	   48.3738
   10.8415 	   55.7160 	    3.0000 	   20.0000 	   48.4598
   10.8873 	   55.9040 	    3.0000 	   20.0000 	   48.5538
   11.2993 	   56.1180 	    3.0000 	   20.0000 	   48.6608
   11.4519 	   56.3220 	    3.0000 	   20.0000 	   48.7628
   11.5740 	   56.5340 	    3.0000 	   20.0000 	   48.8688
   11.6197 	   56.7320 	    3.0000 	   20.0000 	   48.9678
   11.8181 	   56.9420 	    3.0000 	   20.0000 	   49.0728
   11.8639 	   57.1600 	    3.0000 	   20.0000 	   49.1819
   12.0012 	   57.3440 	    3.0000 	   20.0000 	   49.2739
   12.0012 	   57.5340 	    3.0000 	   20.0000 	   49.3689
   12.0928 	   57.7100 	    3.0000 	   20.0000 	   49.4569
   12.1996 	   57.9020 	    3.0000 	   20.0000 	   49.5529
   12.4437 	   58.1060 	    3.0000 	   20.0000 	   49.6549
   12.4437 	   58.3180 	    3.0000 	   20.0000 	   49.7609
   12.3980 	   58.5100 	    3.0000 	   20.0000 	   49.8569
   12.7184 	   58.7080 	    3.0000 	   20.0000 	   49.9559
   12.7794 	   58.9220 	    3.0000 	   20.0000 	   50.0629
   12.8405 	   59.1180 	    3.0000 	   20.0000 	   50.1609
   13.0846 	   59.3960 	    3.0000 	   20.0000 	   50.2999
   13.1914 	   59.5820 	    3.0000 	   20.0000 	   50.3929
   12.9778 	   59.7540 	    3.0000 	   20.0000 	   50.4789
   12.4285 	   59.9400 	    3.0000 	   20.0000 	   50.5719
   12.0165 	   60.1520 	    3.0000 	   20.0000 	   50.6779
   11.8029 	   60.3540 	    3.0000 	   20.0000 	   50.7789
   11.3756 	   60.5540 	    3.0000 	   20.0000 	   50.8790
   11.0552 	   60.7540 	    3.0000 	   20.0000 	   50.9790
   10.7500 	   60.9520 	    3.0000 	   20.0000 	   51.0780
   10.4753 	   61.1540 	    3.0000 	   20.0000 	   51.1790
   10.2159 	   61.3420 	    3.0000 	   20.0000 	   51.2720
    9.9718 	   61.5220 	    3.0000 	   20.0000 	   51.3620
    9.8955 	   61.6980 	    3.0000 	   20.0000 	   51.4500
    9.4682 	   61.8700 	    3.0000 	   20.0000 	   51.5360
    9.5750 	   62.0760 	    3.0000 	   20.0000 	   51.6390
    9.3767 	   62.2900 	    3.0000 	   20.0000 	   51.7460
    9.0715 	   62.4900 	    3.0000 	   20.0000 	   51.8460
    8.9036 	   62.6880 	    3.0000 	   20.0000 	   51.9450
    8.8426 	   62.8860 	    3.0000 	   20.0000 	   52.0440
    8.6595 	   63.0880 	    3.0000 	   20.0000 	   52.1450
    8.3696 	   63.2840 	    3.0000 	   20.0000 	   52.2430
    8.5069 	   63.4680 	    3.0000 	   20.0000 	   52.3350
    8.1559 	   63.6480 	    3.0000 	   20.0000 	   52.4250
    8.1102 	   63.8300 	    3.0000 	   20.0000 	   52.5160
    8.0491 	   64.0300 	    3.0000 	   20.0000 	   52.6161
    7.8355 	   64.2400 	    3.0000 	   20.0000 	   52.7211
    7.6982 	   64.4440 	    3.0000 	   20.0000 	   52.8231
    7.3472 	   64.6440 	    3.0000 	   20.0000 	   52.9231
    7.5761 	   64.8440 	    3.0000 	   20.0000 	   53.0231
    7.3014 	   65.0500 	    3.0000 	   20.0000 	   53.1261
    7.2251 	   65.2540 	    3.0000 	   20.0000 	   53.2281
    7.1031 	   65.4380 	    3.0000 	   20.0000 	   53.3201
    7.1183 	   65.6180 	    3.0000 	   20.0000 	   53.4101
    7.0420 	   65.7900 	    3.0000 	   20.0000 	   53.4961
    7.0115 	   65.9680 	    3.0000 	   20.0000 	   53.5851
    6.7063 	   66.1540 	    3.0000 	   20.0000 	   53.6781
    6.6911 	   66.3360 	    3.0000 	   20.0000 	   53.7691
    6.6300 	   66.5400 	    3.0000 	   20.0000 	   53.8711
    6.6300 	   66.7480 	    3.0000 	   20.0000 	   53.9751
    6.6453 	   66.9500 	    3.0000 	   20.0000 	   54.0761
    6.3859 	   67.1540 	    3.0000 	   20.0000 	   54.1781
    6.4469 	   67.3520 	    3.0000 	   20.0000 	   54.2771
    6.3401 	   67.5380 	    3.0000 	   20.0000 	   54.3702
    6.0502 	   67.7200 	    3.0000 	   20.0000 	   54.4612
    5.9739 	   67.8980 	    3.0000 	   20.0000 	   54.5502
    5.8366 	   68.0960 	    3.0000 	   20.0000 	   54.6492
    5.8976 	   68.3060 	    3.0000 	   20.0000 	   54.7542
    6.0197 	   68.5020 	    3.0000 	   20.0000 	   54.8522
    6.0349 	   68.6780 	    3.0000 	   20.0000 	   54.9402
    5.8061 	   68.8760 	    3.0000 	   20.0000 	   55.0392
    5.7145 	   69.0760 	    3.0000 	   20.0000 	   55.1392
    5.7145 	   69.2820 	    3.0000 	   20.0000 	   55.2422
    5.5924 	   69.4640 	    3.0000 	   20.0000 	   55.3332
    5.4704 	   69.6460 	    3.0000 	   20.0000 	   55.4242
    5.5161 	   69.8360 	    3.0000 	   20.0000 	   55.5192
    5.4856 	   70.0400 	    3.0000 	   20.0000 	   55.6212
    5.4856 	   70.2560 	    3.0000 	   20.0000 	   55.7292
    5.4398 	   70.4580 	    3.0000 	   20.0000 	   55.8302
    5.3025 	   70.6580 	    3.0000 	   20.0000 	   55.9302
    5.2262 	   70.8560 	    3.0000 	   20.0000 	   56.0292
    5.2567 	   71.0620 	    3.0000 	   20.0000 	   56.1323
    5.1499 	   71.2580 	    3.0000 	   20.0000 	   56.2303
    5.0584 	   71.4480 	    3.0000 	   20.0000 	   56.3243
    5.0736 	   71.6280 	    3.0000 	   20.0000 	   56.4153
    5.1194 	   71.8000 	    3.0000 	   20.0000 	   56.5013
    4.9668 	   72.0000 	    3.0000 	   20.0000 	   56.6013
    4.9058 	   72.2040 	    3.0000 	   20.0000 	   56.7033
    4.9821 	   72.4160 	    3.0000 	   20.0000 	   56.8093
    4.9516 	   72.6120 	    3.0000 	   20.0000 	   56.9073
    4.7227 	   72.8160 	    3.0000 	   20.0000 	   57.0093
    4.7837 	   73.0240 	    3.0000 	   20.0000 	   57.1133
    4.7379 	   73.2280 	    3.0000 	   20.0000 	   57.2153
    4.6921 	   73.4200 	    3.0000 	   20.0000 	   57.3113
    4.6769 	   73.6060 	    3.0000 	   20.0000 	   57.4043
    4.5701 	   73.7840 	    3.0000 	   20.0000 	   57.4933
    4.5090 	   73.9860 	    3.0000 	   20.0000 	   57.5943
    4.5243 	   74.1960 	    3.0000 	   20.0000 	   57.6993
    4.5701 	   74.3980 	    3.0000 	   20.0000 	   57.8003
    4.5701 	   74.6120 	    3.0000 	   20.0000 	   57.9074
    4.4785 	   74.8120 	    3.0000 	   20.0000 	   58.0074
    4.3259 	   75.0100 	    3.0000 	   20.0000 	   58.1064
    4.5090 	   75.2220 	    3.0000 	   20.0000 	   58.2124
    4.3717 	   75.4180 	    3.0000 	   20.0000 	   58.3104
    4.3259 	   75.6020 	    3.0000 	   20.0000 	   58.4024
    4.3259 	   75.7800 	    3.0000 	   20.0000 	   58.4914
    4.2802 	   75.9820 	    3.0000 	   20.0000 	   58.5924
    4.3259 	   76.1900 	    3.0000 	   20.0000 	   58.6964
    4.2496 	   76.3980 	    3.0000 	   20.0000 	   58.8004
    3.8834 	   76.6080 	    3.0000 	   20.0000 	   58.9054
    4.2039 	   76.8180 	    3.0000 	   20.0000 	   59.0104
    4.0970 	   77.0240 	    3.0000 	   20.0000 	   59.1134
    4.0055 	   77.2340 	    3.0000 	   20.0000 	   59.2184
    4.1733 	   77.4280 	    3.0000 	   20.0000 	   59.3154
    3.8682 	   77.6120 	    3.0000 	   20.0000 	   59.4074
    4.0665 	   77.7920 	    3.0000 	   20.0000 	   59.4974
    3.9597 	   77.9840 	    3.0000 	   20.0000 	   59.5934
    3.9292 	   78.1960 	    3.0000 	   20.0000 	   59.6995
    3.8682 	   78.4060 	    3.0000 	   20.0000 	   59.8045
    3.7766 	   78.6100 	    3.0000 	   20.0000 	   59.9065
    3.8071 	   78.8200 	    3.0000 	   21.0000 	    0.0115
    3.6698 	   79.0200 	    3.0000 	   21.0000 	    0.1115
    3.7919 	   79.2260 	    3.0000 	   21.0000 	    0.2145
    3.6393 	   79.4260 	    3.0000 	   21.0000 	    0.3145
    3.7156 	   79.6180 	    3.0000 	   21.0000 	    0.4105
    3.6698 	   79.8080 	    3.0000 	   21.0000 	    0.5055
    3.5630 	   80.0120 	    3.0000 	   21.0000 	    0.6075
    3.4257 	   80.2300 	    3.0000 	   21.0000 	    0.7165
    3.2578 	   80.4360 	    3.0000 	   21.0000 	    0.8195
    3.5630 	   80.6460 	    3.0000 	   21.0000 	    0.9245
    3.4104 	   80.8560 	    3.0000 	   21.0000 	    1.0295
    3.6851 	   81.0620 	    3.0000 	   21.0000 	    1.1325
    3.4714 	   81.2740 	    3.0000 	   21.0000 	    1.2385
    3.2120 	   81.4760 	    3.0000 	   21.0000 	    1.3386
    3.3494 	   81.6660 	    3.0000 	   21.0000 	    1.4346
    3.5630 	   81.8420 	    3.0000 	   21.0000 	    1.5226
    3.5172 	   82.0380 	    3.0000 	   21.0000 	    1.6206
    3.3951 	   82.2580 	    3.0000 	   21.0000 	    1.7306
    3.1662 	   82.4700 	    3.0000 	   21.0000 	    1.8366
    3.1815 	   82.6840 	    3.0000 	   21.0000 	    1.9436
    3.1815 	   82.8920 	    3.0000 	   21.0000 	    2.0476
    3.2425 	   83.0980 	    3.0000 	   21.0000 	    2.1506
    3.1052 	   83.3120 	    3.0000 	   21.0000 	    2.2576
    3.1205 	   83.5080 	    3.0000 	   21.0000 	    2.3556
    3.1205 	   83.6960 	    3.0000 	   21.0000 	    2.4496
    3.0747 	   83.8780 	    3.0000 	   21.0000 	    2.5406
    3.2273 	   84.0860 	    3.0000 	   21.0000 	    2.6446
    3.0594 	   84.3040 	    3.0000 	   21.0000 	    2.7536
    3.0747 	   84.5180 	    3.0000 	   21.0000 	    2.8606
    3.1052 	   84.7280 	    3.0000 	   21.0000 	    2.9656
    3.1205 	   84.9420 	    3.0000 	   21.0000 	    3.0726
    3.1052 	   85.1440 	    3.0000 	   21.0000 	    3.1737
    2.9679 	   85.3500 	    3.0000 	   21.0000 	    3.2767
    2.8916 	   85.5520 	    3.0000 	   21.0000 	    3.3777
    2.9374 	   85.7420 	    3.0000 	   21.0000 	    3.4727
    2.8153 	   85.9300 	    3.0000 	   21.0000 	    3.5667
    2.9374 	   86.1480 	    3.0000 	   21.0000 	    3.6757
    2.9068 	   86.3740 	    3.0000 	   21.0000 	    3.7887
    2.8305 	   86.5800 	    3.0000 	   21.0000 	    3.8917
    2.7695 	   86.7940 	    3.0000 	   21.0000 	    3.9987
    2.4796 	   87.0100 	    3.0000 	   21.0000 	    4.1067
    2.8916 	   87.2160 	    3.0000 	   21.0000 	    4.2097
    2.8305 	   87.4240 	    3.0000 	   21.0000 	    4.3137
    2.6932 	   87.6180 	    3.0000 	   21.0000 	    4.4107
    2.7543 	   87.8040 	    3.0000 	   21.0000 	    4.5037
    2.7695 	   88.0100 	    3.0000 	   21.0000 	    4.6067
    2.7848 	   88.2240 	    3.0000 	   21.0000 	    4.7137
    2.6474 	   88.4280 	    3.0000 	   21.0000 	    4.8157
    2.5559 	   88.6400 	    3.0000 	   21.0000 	    4.9218
    2.6169 	   88.8580 	    3.0000 	   21.0000 	    5.0308
    2.7085 	   89.0700 	    3.0000 	   21.0000 	    5.1368
    2.6322 	   89.2820 	    3.0000 	   21.0000 	    5.2428
    2.5864 	   89.4840 	    3.0000 	   21.0000 	    5.3438
    2.6932 	   89.6820 	    3.0000 	   21.0000 	    5.4428
    2.4796 	   89.8640 	    3.0000 	   21.0000 	    5.5338
    2.5711 	   90.0700 	    3.0000 	   21.0000 	    5.6368
    2.5254 	   90.2900 	    3.0000 	   21.0000 	    5.7468
    2.4033 	   90.5000 	    3.0000 	   21.0000 	    5.8518
    2.5101 	   90.7160 	    3.0000 	   21.0000 	    5.9598
    2.3270 	   90.9280 	    3.0000 	   21.0000 	    6.0658
    2.3880 	   91.1420 	    3.0000 	   21.0000 	    6.1728
    2.4033 	   91.3580 	    3.0000 	   21.0000 	    6.2808
    2.3270 	   91.5560 	    3.0000 	   21.0000 	    6.3798
    2.4491 	   91.7480 	    3.0000 	   21.0000 	    6.4758
    2.4338 	   91.9380 	    3.0000 	   21.0000 	    6.5708
    2.2354 	   92.1460 	    3.0000 	   21.0000 	    6.6749
    2.2507 	   92.3520 	    3.0000 	   21.0000 	    6.7779
    2.2812 	   92.5640 	    3.0000 	   21.0000 	    6.8839
    2.3728 	   92.7860 	    3.0000 	   21.0000 	    6.9949
    2.2812 	   93.0000 	    3.0000 	   21.0000 	    7.1019
    2.2202 	   93.2160 	    3.0000 	   21.0000 	    7.2099
    2.3117 	   93.4300 	    3.0000 	   21.0000 	    7.3169
    2.1744 	   93.6240 	    3.0000 	   21.0000 	    7.4139
    2.1134 	   93.8140 	    3.0000 	   21.0000 	    7.5089
    2.2812 	   94.0000 	    3.0000 	   21.0000 	    7.6019
    2.2354 	   94.2100 	    3.0000 	   21.0000 	    7.7069
    2.0676 	   94.4220 	    3.0000 	   21.0000 	    7.8129
    2.0829 	   94.6340 	    3.0000 	   21.0000 	    7.9189
    2.0371 	   94.8480 	    3.0000 	   21.0000 	    8.0259
    2.0676 	   95.0640 	    3.0000 	   21.0000 	    8.1339
    2.1286 	   95.2820 	    3.0000 	   21.0000 	    8.2429
    2.1897 	   95.4940 	    3.0000 	   21.0000 	    8.3480
    1.9760 	   95.6900 	    3.0000 	   21.0000 	    8.4470
    2.0523 	   95.8860 	    3.0000 	   21.0000 	    8.5450
    1.9760 	   96.0740 	    3.0000 	   21.0000 	    8.6390
    1.9303 	   96.2820 	    3.0000 	   21.0000 	    8.7420
    2.1134 	   96.4900 	    3.0000 	   21.0000 	    8.8460
    2.1744 	   96.7020 	    3.0000 	   21.0000 	    8.9520
    1.8997 	   96.9180 	    3.0000 	   21.0000 	    9.0600
    1.9303 	   97.1200 	    3.0000 	   21.0000 	    9.1610
    1.7624 	   97.3260 	    3.0000 	   21.0000 	    9.2640
    1.8845 	   97.5340 	    3.0000 	   21.0000 	    9.3680
    1.8387 	   97.7320 	    3.0000 	   21.0000 	    9.4670
    1.5183 	   97.9200 	    3.0000 	   21.0000 	    9.5610
    1.6861 	   98.1200 	    3.0000 	   21.0000 	    9.6610
    1.7624 	   98.3420 	    3.0000 	   21.0000 	    9.7720
    1.8082 	   98.5420 	    3.0000 	   21.0000 	    9.8720
    1.6861 	   98.7360 	    3.0000 	   21.0000 	    9.9690
    1.8845 	   98.9420 	    3.0000 	   21.0000 	   10.0721
    1.7624 	   99.1600 	    3.0000 	   21.0000 	   10.1811
    1.7777 	   99.3760 	    3.0000 	   21.0000 	   10.2891
    1.6251 	   99.5860 	    3.0000 	   21.0000 	   10.3941
    1.7472 	   99.7860 	    3.0000 	   21.0000 	   10.4941
    1.7624 	   99.9820 	    3.0000 	   21.0000 	   10.5921
    1.6709 	  100.2020 	    3.0000 	   21.0000 	   10.7021
    1.7166 	  100.4300 	    3.0000 	   21.0000 	   10.8161
    1.7624 	  100.6500 	    3.0000 	   21.0000 	   10.9261
    1.5946 	  100.8640 	    3.0000 	   21.0000 	   11.0331
    1.6861 	  101.0780 	    3.0000 	   21.0000 	   11.1401
    1.5183 	  101.3020 	    3.0000 	   21.0000 	   11.2521
    1.5946 	  101.5080 	    3.0000 	   21.0000 	   11.3551
    1.5335 	  101.7120 	    3.0000 	   21.0000 	   11.4571
    1.6556 	  101.9020 	    3.0000 	   21.0000 	   11.5521
    1.6251 	  102.1020 	    3.0000 	   21.0000 	   11.6521
    1.1673 	  102.3160 	    3.0000 	   21.0000 	   11.7591
    1.4572 	  102.5300 	    3.0000 	   21.0000 	   11.8662
    1.4725 	  102.7500 	    3.0000 	   21.0000 	   11.9762
    1.5640 	  102.9700 	    3.0000 	   21.0000 	   12.0862
    1.4725 	  103.1900 	    3.0000 	   21.0000 	   12.1962
    1.2741 	  103.4020 	    3.0000 	   21.0000 	   12.3022
    1.4572 	  103.6080 	    3.0000 	   21.0000 	   12.4052
    1.3962 	  103.8000 	    3.0000 	   21.0000 	   12.5012
    1.4267 	  103.9880 	    3.0000 	   21.0000 	   12.5952
    1.3352 	  104.2040 	    3.0000 	   21.0000 	   12.7032
    1.3504 	  104.4180 	    3.0000 	   21.0000 	   12.8102
    1.2741 	  104.6220 	    3.0000 	   21.0000 	   12.9122
    1.2131 	  104.8360 	    3.0000 	   21.0000 	   13.0192
    1.2589 	  105.0540 	    3.0000 	   21.0000 	   13.1282
    1.3657 	  105.2740 	    3.0000 	   21.0000 	   13.2382
    1.2741 	  105.4880 	    3.0000 	   21.0000 	   13.3452
    1.1673 	  105.7000 	    3.0000 	   21.0000 	   13.4512
    1.2284 	  105.9040 	    3.0000 	   21.0000 	   13.5532
    1.0910 	  106.1020 	    3.0000 	   21.0000 	   13.6523
    1.2284 	  106.3140 	    3.0000 	   21.0000 	   13.7583
    1.1826 	  106.5300 	    3.0000 	   21.0000 	   13.8663
    1.1063 	  106.7540 	    3.0000 	   21.0000 	   13.9783
    1.0300 	  106.9600 	    3.0000 	   21.0000 	   14.0813
    1.1826 	  107.1800 	    3.0000 	   21.0000 	   14.1913
    1.1521 	  107.4040 	    3.0000 	   21.0000 	   14.3033
    0.9689 	  107.6160 	    3.0000 	   21.0000 	   14.4093
    0.9079 	  107.8220 	    3.0000 	   21.0000 	   14.5123
    0.9842 	  108.0120 	    3.0000 	   21.0000 	   14.6073
    0.9384 	  108.2260 	    3.0000 	   21.0000 	   14.7143
    0.6180 	  108.4460 	    3.0000 	   21.0000 	   14.8243
    1.1368 	  108.6600 	    3.0000 	   21.0000 	   14.9313
    0.9384 	  108.8800 	    3.0000 	   21.0000 	   15.0413
    0.9689 	  109.0960 	    3.0000 	   21.0000 	   15.1493
    0.8316 	  109.3120 	    3.0000 	   21.0000 	   15.2573
    0.8316 	  109.5240 	    3.0000 	   21.0000 	   15.3634
    0.9842 	  109.7240 	    3.0000 	   21.0000 	   15.4634
    0.8621 	  109.9140 	    3.0000 	   21.0000 	   15.5584
    0.7553 	  110.1040 	    3.0000 	   21.0000 	   15.6534
    0.8927 	  110.3280 	    3.0000 	   21.0000 	   15.7654
    0.8774 	  110.5420 	    3.0000 	   21.0000 	   15.8724
    0.6485 	  110.7640 	    3.0000 	   21.0000 	   15.9834
    0.8011 	  110.9840 	    3.0000 	   21.0000 	   16.0934
    0.9384 	  111.2040 	    3.0000 	   21.0000 	   16.2034
    0.7858 	  111.4240 	    3.0000 	   21.0000 	   16.3134
    0.6332 	  111.6340 	    3.0000 	   21.0000 	   16.4184
    0.6485 	  111.8340 	    3.0000 	   21.0000 	   16.5184
    0.7858 	  112.0280 	    3.0000 	   21.0000 	   16.6154
    0.6332 	  112.2420 	    3.0000 	   21.0000 	   16.7224
    0.6332 	  112.4660 	    3.0000 	   21.0000 	   16.8344
    0.6332 	  112.6940 	    3.0000 	   21.0000 	   16.9484
    0.5722 	  112.9220 	    3.0000 	   21.0000 	   17.0625
    0.6943 	  113.1440 	    3.0000 	   21.0000 	   17.1735
    0.1907 	  113.3660 	    3.0000 	   21.0000 	   17.2845
    0.5722 	  113.5780 	    3.0000 	   21.0000 	   17.3905
    0.4654 	  113.7880 	    3.0000 	   21.0000 	   17.4955
    0.5722 	  113.9820 	    3.0000 	   21.0000 	   17.5925
    0.4501 	  114.1960 	    3.0000 	   21.0000 	   17.6995
    0.2976 	  114.4240 	    3.0000 	   21.0000 	   17.8135
    0.4349 	  114.6400 	    3.0000 	   21.0000 	   17.9215
    0.4807 	  114.8580 	    3.0000 	   21.0000 	   18.0305
    0.4501 	  115.0800 	    3.0000 	   21.0000 	   18.1415
    0.4044 	  115.3040 	    3.0000 	   21.0000 	   18.2535
    0.3738 	  115.5260 	    3.0000 	   21.0000 	   18.3645
    0.4349 	  115.7300 	    3.0000 	   21.0000 	   18.4665
    0.4044 	  115.9280 	    3.0000 	   21.0000 	   18.5655
    0.3586 	  116.1420 	    3.0000 	   21.0000 	   18.6725
    0.2976 	  116.3640 	    3.0000 	   21.0000 	   18.7835
    0.3128 	  116.5820 	    3.0000 	   21.0000 	   18.8926
    0.3433 	  116.8080 	    3.0000 	   21.0000 	   19.0056
    0.4196 	  117.0340 	    3.0000 	   21.0000 	   19.1186
    0.2518 	  117.2580 	    3.0000 	   21.0000 	   19.2306
    0.2976 	  117.4780 	    3.0000 	   21.0000 	   19.3406
    0.0229 	  117.7000 	    3.0000 	   21.0000 	   19.4516
    0.2518 	  117.9060 	    3.0000 	   21.0000 	   19.5546
    0.2670 	  118.1000 	    3.0000 	   21.0000 	   19.6516
    0.2976 	  118.3160 	    3.0000 	   21.0000 	   19.7596
    0.3128 	  118.5380 	    3.0000 	   21.0000 	   19.8706
    0.3128 	  118.7600 	    3.0000 	   21.0000 	   19.9816
    0.2213 	  118.9820 	    3.0000 	   21.0000 	   20.0926
    0.4196 	  119.2060 	    3.0000 	   21.0000 	   20.2046
    0.3891 	  119.4340 	    3.0000 	   21.0000 	   20.3186
    0.3128 	  119.6520 	    3.0000 	   21.0000 	   20.4276
    0.2518 	  119.8520 	    3.0000 	   21.0000 	   20.5276
    0.2213 	  120.0460 	    3.0000 	   21.0000 	   20.6247
    0.3281 	  120.2700 	    3.0000 	   21.0000 	   20.7367
    0.3586 	  120.5000 	    3.0000 	   21.0000 	   20.8517
    0.2976 	  120.7240 	    3.0000 	   21.0000 	   20.9637
    0.3128 	  120.9540 	    3.0000 	   21.0000 	   21.0787
    0.4349 	  121.1780 	    3.0000 	   21.0000 	   21.1907
    0.4044 	  121.4020 	    3.0000 	   21.0000 	   21.3027
    0.4959 	  121.6180 	    3.0000 	   21.0000 	   21.4107